loggingTime(txt),motionRotationRateX(rad/s),motionRotationRateY(rad/s),motionRotationRateZ(rad/s),motionUserAccelerationX(G),motionUserAccelerationY(G),motionUserAccelerationZ(G)
2022-11-12T01:22:18.725-07:00,-0.1928666532039640,-0.0761377364397049,-0.04448751732707020,-0.08319717645645140,0.01781801879405980,0.007885098457336430
2022-11-12T01:22:18.728-07:00,-0.1112519800662990,-0.04729726538062100,-0.02644779533147810,-0.1081129312515260,0.01748766005039220,-0.0336688756942749
2022-11-12T01:22:18.729-07:00,-0.009455044753849510,-0.09750796854496000,0.005661404691636560,-0.05597800016403200,0.0596296638250351,-0.008257210254669190
2022-11-12T01:22:18.738-07:00,0.02593979425728320,-0.08208943158388140,-0.008134834468364720,0.005730926990509030,0.04099353402853010,0.03642678260803220
2022-11-12T01:22:18.739-07:00,0.07116639614105230,-0.03527266159653660,-0.0007754554972052570,0.00262451171875,0.01132708787918090,0.04491943120956420
2022-11-12T01:22:18.740-07:00,0.1098852306604390,-0.007887041196227070,0.01437074039131400,-0.04132111370563510,-0.0003778189420700070,0.05051338672637940
2022-11-12T01:22:18.741-07:00,0.1148267239332200,0.003914756700396540,0.00835625734180212,-0.05044476687908170,0.01271628588438030,0.02614486217498780
2022-11-12T01:22:18.752-07:00,0.07056069374084470,0.008542298339307310,-0.03315283358097080,-0.03351230919361120,0.00652824342250824,-0.004823029041290280
2022-11-12T01:22:18.761-07:00,0.02848461084067820,0.01238017994910480,-0.04605771601200100,-0.01361365616321560,-0.008196130394935610,-0.01641470193862920
2022-11-12T01:22:18.771-07:00,0.01111504435539250,0.009416248649358750,-0.05800066143274310,-0.003230616450309750,-0.01010742783546450,-0.009758830070495610
2022-11-12T01:22:18.781-07:00,0.002015555277466770,0.02095519192516800,-0.03146598860621450,-0.0137869268655777,-0.02015978097915650,0.006734549999237060
2022-11-12T01:22:18.791-07:00,0.0019402876496315,0.04592915251851080,-0.03387508541345600,-0.02634307742118840,-0.03331167995929720,0.01284521818161010
2022-11-12T01:22:18.801-07:00,0.0008193645626306530,0.05825506150722500,-0.02608374133706090,-0.03423108160495760,-0.04240097105503080,0.005274057388305660
2022-11-12T01:22:18.811-07:00,-0.009971399791538720,0.06357835233211520,-0.02859457023441790,-0.03049023449420930,-0.02698582410812380,-0.00342249870300293
2022-11-12T01:22:18.821-07:00,-0.01951563730835920,0.05317604541778560,-0.03677979484200480,-0.01693333685398100,-0.01014295220375060,-0.009323358535766600
2022-11-12T01:22:18.831-07:00,-0.03532342612743380,0.04778188094496730,-0.04704095423221590,-0.008338689804077150,-0.003670617938041690,-0.01180785894393920
2022-11-12T01:22:18.841-07:00,-0.04933032393455510,0.04932278394699100,-0.06714169681072240,-0.009836897253990170,0.001265838742256170,-0.008180201053619390
2022-11-12T01:22:18.851-07:00,-0.04324140399694440,0.05314482003450390,-0.07812057435512540,-0.01511727273464200,-0.0003576874732971190,-0.008348345756530760
2022-11-12T01:22:18.861-07:00,-0.03068166971206670,0.05570198968052860,-0.07510215044021610,-0.01624275743961330,0.001755088567733770,-0.008696138858795170
2022-11-12T01:22:18.871-07:00,-0.02669838070869450,0.05115064606070520,-0.08199121803045270,-0.01321102678775790,0.006774827837944030,-0.00991743803024292
2022-11-12T01:22:18.881-07:00,-0.02190655469894410,0.029188621789217,-0.06543940305709840,-0.005597099661827090,0.006110996007919310,-0.01210278272628780
2022-11-12T01:22:18.891-07:00,-0.01296812109649180,0.02678904682397840,-0.07395672798156740,0.006334975361824040,0.002707630395889280,-0.01358973979949950
2022-11-12T01:22:18.901-07:00,3.02363187074661E-05,0.006586306728422640,-0.05255502834916120,0.007051095366477970,0.00546862930059433,-0.01397937536239620
2022-11-12T01:22:18.911-07:00,-0.001855581998825070,-0.004217572044581180,-0.0569969117641449,0.00552801787853241,0.02209325134754180,-0.01017731428146360
2022-11-12T01:22:18.921-07:00,-0.01584516651928430,-0.01429630443453790,-0.05677347630262380,0.004607558250427250,0.01555174589157100,-0.00818932056427002
2022-11-12T01:22:18.932-07:00,-0.009131471626460550,-0.006489381194114690,-0.04721326380968090,0.0007873177528381350,0.01063026487827300,0.00158923864364624
2022-11-12T01:22:18.942-07:00,0.01096554100513460,0.007325500249862670,-0.02162560820579530,-0.01081202924251560,0.01249019801616670,0.006406545639038090
2022-11-12T01:22:18.959-07:00,0.01318245381116870,0.0128898099064827,-0.00760752847418189,-0.01867130398750310,0.02059490978717800,0.004402577877044680
2022-11-12T01:22:18.962-07:00,0.009429529309272770,0.005290479399263860,-0.01056523527950050,-0.0152384340763092,0.01556773483753200,0.002702236175537110
2022-11-12T01:22:18.972-07:00,-0.001238960772752760,-0.002534021157771350,-0.00610310910269618,-0.01260882616043090,0.008286044001579290,0.00326162576675415
2022-11-12T01:22:18.982-07:00,-0.010769615881145,-0.0177041869610548,0.001061060465872290,-0.01399697363376620,0.01016180962324140,0.002157330513000490
2022-11-12T01:22:18.992-07:00,-0.001442492008209230,-0.03336190804839130,0.00841937493532896,-0.01612482964992520,0.01130080223083500,0.002500832080841060
2022-11-12T01:22:19.002-07:00,-0.001227041706442830,-0.03559283912181850,-0.002260700101032850,-0.01636272668838500,0.009409591555595400,-0.0003135204315185550
2022-11-12T01:22:19.012-07:00,0.001176893711090090,-0.03075057826936250,0.003714900463819500,-0.01748599112033840,0.005162395536899570,0.002993166446685790
2022-11-12T01:22:19.022-07:00,0.007584990933537480,-0.03595892339944840,0.008269438520073890,-0.01704426109790800,0.00182507187128067,0.005650937557220460
2022-11-12T01:22:19.032-07:00,0.01052794978022580,-0.02301799133419990,0.01276591885834930,-0.01656930148601530,-0.001147180795669560,0.00421220064163208
2022-11-12T01:22:19.042-07:00,0.0161951556801796,-0.01106226164847610,0.01480803173035380,-0.01819470524787900,-0.005598485469818120,0.0007392168045043950
2022-11-12T01:22:19.052-07:00,0.01785160787403580,-0.012918452732265,0.02216687798500060,-0.01899673044681550,-0.005486764013767240,-0.001344680786132810
2022-11-12T01:22:19.062-07:00,0.007587254047393800,-0.01717871055006980,0.02128510549664500,-0.01604372262954710,-0.005796767771244050,0.003420412540435790
2022-11-12T01:22:19.072-07:00,-0.005539764650166040,-0.01714139245450500,0.02101399376988410,-0.01451712846755980,-0.005749143660068510,0.005349218845367430
2022-11-12T01:22:19.083-07:00,-0.0169649925082922,-0.009826755151152610,0.01284714508801700,-0.0148557722568512,-0.001965969800949100,0.002090215682983400
2022-11-12T01:22:19.092-07:00,-0.01139968633651730,-0.001354806823655960,0.01215365901589390,-0.01453591883182530,-0.0003940984606742860,-0.002010583877563480
2022-11-12T01:22:19.102-07:00,-0.008717617020010950,-0.00841511320322752,0.01691326126456260,-0.01239798963069920,0.002567440271377560,-0.003939390182495120
2022-11-12T01:22:19.113-07:00,-0.01289821416139600,-0.01426611095666890,0.01303463242948060,-0.009140938520431520,0.00458342581987381,-0.00234454870223999
2022-11-12T01:22:19.122-07:00,-0.01110670529305940,-0.01531007047742610,0.008556527085602280,-0.004723682999610900,0.0033998042345047,-0.006946325302124020
2022-11-12T01:22:19.132-07:00,-0.006769081577658650,-0.006984629202634100,0.004076824523508550,-0.001272499561309810,0.007861018180847170,-0.01299864053726200
2022-11-12T01:22:19.142-07:00,0.01594075933098790,0.002910345792770390,0.01277870405465360,-0.001758486032485960,0.007684096693992620,-0.0150374174118042
2022-11-12T01:22:19.152-07:00,0.01526748016476630,0.0006738560041412710,0.01397073455154900,-0.00508330762386322,0.007060222327709200,-0.0134614109992981
2022-11-12T01:22:19.163-07:00,0.007835928350687030,-0.002911025192588570,0.005809477530419830,-0.004337668418884280,0.00535188615322113,-0.009190678596496580
2022-11-12T01:22:19.173-07:00,-0.005670859478414060,-0.003457738785073160,-0.004711607471108440,-0.0008695870637893680,0.001374505460262300,-0.005699455738067630
2022-11-12T01:22:19.183-07:00,-0.02089828252792360,-0.005306238774210220,-0.005401366390287880,-0.003217682242393490,0.006481260061264040,-0.001276254653930660
2022-11-12T01:22:19.193-07:00,-0.02302415110170840,0.003523339051753280,-0.009166277013719080,-0.009453639388084410,0.00408954918384552,0.004627823829650880
2022-11-12T01:22:19.203-07:00,-0.01178294792771340,0.01292589493095880,-0.003380293026566510,-0.01532039046287540,0.004435479640960690,0.003806173801422120
2022-11-12T01:22:19.213-07:00,0.001874472945928570,0.01747570559382440,-0.00229212548583746,-0.01790417730808260,0.005801498889923100,-0.002579271793365480
2022-11-12T01:22:19.223-07:00,-0.004982367157936100,0.02026616595685480,-0.009446441195905210,-0.01630948483943940,0.002201862633228300,-0.005786538124084470
2022-11-12T01:22:19.233-07:00,-0.006981135345995430,0.01554631255567070,-0.01223050989210610,-0.01392874121665960,-0.0001237913966178890,-0.002759277820587160
2022-11-12T01:22:19.243-07:00,-0.0002222992479801180,0.0162001196295023,-0.006263430695980790,-0.01377123594284060,-0.002857916057109830,0.004095971584320070
2022-11-12T01:22:19.253-07:00,0.006112562492489820,0.01235984079539780,0.001262662466615440,-0.01469880342483520,-0.002967648208141330,0.003639400005340580
2022-11-12T01:22:19.263-07:00,0.0102138314396143,-0.000660354329738766,0.003736206330358980,-0.01416897773742680,-0.001325681805610660,0.002863705158233640
2022-11-12T01:22:19.273-07:00,0.01330066844820980,-0.01143786776810880,0.006058748811483380,-0.01389352977275850,-0.0001652389764785770,-0.001043200492858890
2022-11-12T01:22:19.283-07:00,0.009218839928507810,-0.008293473161756990,0.008602866902947430,-0.01658463478088380,0.002845093607902530,-0.0006390213966369630
2022-11-12T01:22:19.293-07:00,0.01360609754920010,-0.004922410473227500,0.01204180624336000,-0.01853573322296140,0.008861854672431950,-0.003975868225097660
2022-11-12T01:22:19.303-07:00,0.01266546919941900,-0.008683593012392520,0.01959745958447460,-0.01889908313751220,0.009510867297649380,-0.01316165924072270
2022-11-12T01:22:19.313-07:00,0.00679066963493824,-0.004453561268746850,0.01376806665211920,-0.01946088671684270,0.01211905479431150,-0.01102238893508910
2022-11-12T01:22:19.323-07:00,-0.001345021650195120,-0.001461233245208860,0.01134965103119610,-0.0164160430431366,0.008549690246582030,-0.007730662822723390
2022-11-12T01:22:19.333-07:00,-0.003905650228261950,-0.002535818843171,0.01266125869005920,-0.01638323068618770,0.003932766616344450,-0.008390307426452640
2022-11-12T01:22:19.343-07:00,0.001339711248874660,0.004403047263622280,0.008039874024689200,-0.01396059989929200,0.004827052354812620,-0.004922747611999510
2022-11-12T01:22:19.353-07:00,0.01246470026671890,0.009374469518661500,0.009571724571287630,-0.01193350553512570,0.003299616277217870,-0.00805056095123291
2022-11-12T01:22:19.363-07:00,0.00539667159318924,0.008227179758250710,0.006515214219689370,-0.01005980372428890,0.003085598349571230,-0.006491899490356450
2022-11-12T01:22:19.373-07:00,-0.0009465776383876800,0.003672775346785780,-0.003573372028768060,-0.007100299000740050,-8.76933336257935E-05,-0.006308674812316900
2022-11-12T01:22:19.383-07:00,0.0004009809345006940,0.001687122392468150,-0.002273216843605040,-0.00371687114238739,-0.003988094627857210,-0.002191901206970220
2022-11-12T01:22:19.393-07:00,0.005844181403517720,0.00565952667966485,-0.0001506772823631760,-0.006223544478416440,0.001487359404563900,0.002332806587219240
2022-11-12T01:22:19.403-07:00,0.0001572687178850170,0.01098371762782340,0.001131101977080110,-0.007761210203170780,0.003076232969760900,-0.0002690553665161130
2022-11-12T01:22:19.414-07:00,-0.00367145799100399,0.01388193666934970,-0.005580063909292220,-0.01216681301593780,0.005823634564876560,0.001077175140380860
2022-11-12T01:22:19.424-07:00,0.002363264560699460,0.02170843444764610,-0.000780514907091856,-0.01546084880828860,0.003854669630527500,0.002366364002227780
2022-11-12T01:22:19.434-07:00,0.008660774677991870,0.02123072929680350,0.002357752993702890,-0.01334886252880100,0.006776101887226110,0.0003893375396728520
2022-11-12T01:22:19.444-07:00,0.007531061768531800,0.01695422455668450,-0.001222600229084490,-0.01460520923137670,0.005105786025524140,0.0005357861518859860
2022-11-12T01:22:19.455-07:00,0.01387650892138480,0.01163569372147320,-0.004867402371019130,-0.009670600295066830,0.0007553026080131530,-1.89542770385742E-05
2022-11-12T01:22:19.472-07:00,0.01178459450602530,0.008866804651916030,-0.003898011753335600,-0.008975118398666380,0.002004325389862060,-0.002532005310058590
2022-11-12T01:22:19.474-07:00,0.008679484948515890,0.001258286996744570,-0.006572623737156390,-0.007398664951324460,0.003968238830566410,-0.003795444965362550
2022-11-12T01:22:19.484-07:00,0.001365112140774730,0.00903684739023447,-0.009963893331587320,-0.0108342170715332,0.00511515885591507,-0.003100693225860600
2022-11-12T01:22:19.494-07:00,-0.001410434022545820,0.005972081795334820,-0.005791518837213520,-0.01558135449886320,-0.0003176108002662660,-0.003336012363433840
2022-11-12T01:22:19.504-07:00,-0.002592878416180610,0.003606662154197690,-0.001849773805588480,-0.01680678129196170,0.001036703586578370,-0.001042068004608150
2022-11-12T01:22:19.514-07:00,0.0008116401731967930,-0.001761404913850130,-0.003350998507812620,-0.01318266987800600,0.005549110472202300,-0.0005438327789306640
2022-11-12T01:22:19.524-07:00,0.004959514364600180,-0.003742796834558250,-0.002643130486831070,-0.009287998080253600,0.006568290293216710,-0.002711892127990720
2022-11-12T01:22:19.534-07:00,0.01258507557213310,-0.000275494297966361,0.001278107985854150,-0.01170289516448980,0.006789460778236390,-0.003425478935241700
2022-11-12T01:22:19.544-07:00,0.01016958989202980,-0.006527530960738660,0.002980933524668220,-0.01463770866394040,0.006333783268928530,-0.002669930458068850
2022-11-12T01:22:19.554-07:00,0.0008898377418518070,-0.0159386433660984,-0.0006505530327558520,-0.01205757260322570,0.004794999957084660,-0.001483380794525150
2022-11-12T01:22:19.564-07:00,-0.004431424662470820,-0.005188527051359420,-0.0007522860541939740,-0.009270712733268740,0.003724455833435060,-0.002657175064086910
2022-11-12T01:22:19.574-07:00,-0.0009980760514736180,0.001039541442878540,0.003437132574617860,-0.01441089808940890,-0.00268101692199707,-0.00232011079788208
2022-11-12T01:22:19.584-07:00,0.002728484570980070,0.002153009176254270,0.006728800013661390,-0.01981803774833680,-0.004429556429386140,-0.00373232364654541
2022-11-12T01:22:19.594-07:00,-0.001400047913193700,0.002951791044324640,0.00354072917252779,-0.01357130706310270,-0.00267975777387619,-0.001913666725158690
2022-11-12T01:22:19.604-07:00,-0.009825757704675200,-0.002536984160542490,0.002923674881458280,-0.009271666407585140,0.0006253048777580260,0.001653730869293210
2022-11-12T01:22:19.614-07:00,-0.005658908747136590,-0.004020963795483110,0.002151891589164730,-0.007847785949707030,0.002221226692199710,0.001125872135162350
2022-11-12T01:22:19.624-07:00,-0.005673023872077470,0.01097662746906280,0.0006506671197712420,-0.009030342102050780,0.003335088491439820,-0.001365900039672850
2022-11-12T01:22:19.634-07:00,0.01037109084427360,0.02766835503280160,0.001147613860666750,-0.01432564854621890,0.004839017987251280,-0.0008352398872375490
2022-11-12T01:22:19.645-07:00,0.005308687686920170,0.01768389716744420,0.007300314493477350,-0.01596270501613620,0.002644896507263180,-0.005035877227783200
2022-11-12T01:22:19.655-07:00,-0.006033449433743950,0.007354029454290870,-0.006117490120232110,-0.009428858757019040,0.001956038177013400,-0.004118382930755620
2022-11-12T01:22:19.665-07:00,-0.01687251403927800,0.002760076895356180,-0.01747214421629910,-0.0001884251832962040,-0.001985624432563780,-0.002675652503967290
2022-11-12T01:22:19.675-07:00,0.001931900158524510,-0.0005948071484453980,-0.002892668126150970,-0.009591668844223020,-0.001420937478542330,-0.001846611499786380
2022-11-12T01:22:19.684-07:00,0.01198959350585940,-0.008123563602566720,0.009890505112707620,-0.01337887346744540,0.009457677602767940,-0.00578683614730835
2022-11-12T01:22:19.694-07:00,0.001130353659391400,-0.01755361817777160,0.001850155182182790,-0.008850052952766420,0.005215145647525790,-0.005622446537017820
2022-11-12T01:22:19.705-07:00,-0.00111495703458786,-0.007550518028438090,0.002736188471317290,-0.005989819765090940,-0.005633100867271420,-0.006353795528411870
2022-11-12T01:22:19.715-07:00,-0.01070606522262100,0.01070145610719920,0.02059321664273740,-0.01205267012119290,-0.001049190759658810,-0.007309913635253910
2022-11-12T01:22:19.725-07:00,0.0001010429114103320,0.02135303616523740,0.0226901900023222,-0.01955729722976690,0.002108536660671230,-0.01146256923675540
2022-11-12T01:22:19.735-07:00,-0.008314846083521840,0.01798177324235440,0.03298996761441230,-0.02339115738868710,0.001028746366500850,-0.01122021675109860
2022-11-12T01:22:19.745-07:00,-0.02035286650061610,-0.001426279544830320,0.02127711474895480,-0.01066109538078310,0.008528918027877810,-0.008568763732910160
2022-11-12T01:22:19.755-07:00,-0.01802879385650160,-0.01035792287439110,0.0112383309751749,-0.0005615353584289550,0.006672278046607970,-0.0008752346038818360
2022-11-12T01:22:19.765-07:00,-0.01769430004060270,-0.0116580780595541,0.01495051197707650,-0.008771896362304690,0.006695389747619630,0.002250492572784420
2022-11-12T01:22:19.775-07:00,-0.005386268720030790,-0.01006387639790770,0.006876605562865730,-0.01112192869186400,0.01723688840866090,0.003982722759246830
2022-11-12T01:22:19.785-07:00,0.009766586124897000,-0.004715183284133670,0.001648554112762210,-0.005265742540359500,0.012875035405159,0.0002886652946472170
2022-11-12T01:22:19.795-07:00,0.009585389867424970,0.002149214036762710,0.009960279799997810,-0.01767757534980770,0.001947730779647830,-0.003088772296905520
2022-11-12T01:22:19.805-07:00,0.02435102127492430,-0.08099786937236790,-0.004015989601612090,-0.004148051142692570,0.01257732510566710,0.0007547736167907720
2022-11-12T01:22:19.815-07:00,0.05875696241855620,-0.1258812248706820,-0.02720946073532100,0.08051207661628720,0.04796429723501210,0.02836889028549190
2022-11-12T01:22:19.825-07:00,0.05067933350801470,-0.08643261343240740,-0.0349709764122963,0.02399052679538730,0.01382966339588170,0.01055741310119630
2022-11-12T01:22:19.835-07:00,0.04566506296396260,-0.02024500817060470,-0.03686874359846120,-0.02458789944648740,-0.01459687203168870,-0.01259410381317140
2022-11-12T01:22:19.845-07:00,0.02581253089010720,-0.000991684733889997,-0.01340869255363940,-0.06203345954418180,-0.03783882409334180,-0.02147239446640020
2022-11-12T01:22:19.855-07:00,0.03155643492937090,-0.03653875738382340,-0.002882282016798850,-0.05703118443489080,-0.03259900212287900,-0.01246398687362670
2022-11-12T01:22:19.865-07:00,0.007259087637066840,-0.03819337859749790,0.01927415281534200,-0.008701980113983150,-0.001417681574821470,0.001564145088195800
2022-11-12T01:22:19.875-07:00,0.01495702005922790,-0.111773394048214,0.01895776763558390,0.02235795557498930,0.0297582820057869,0.008221983909606930
2022-11-12T01:22:19.885-07:00,0.06365983933210370,-0.1069477498531340,-0.01310162991285320,0.0324457585811615,0.0290166437625885,0.02384328842163090
2022-11-12T01:22:19.895-07:00,0.1065817773342130,-0.01955454982817170,-0.009233655408024790,0.003204613924026490,0.02415530383586880,0.01187288761138920
2022-11-12T01:22:19.905-07:00,0.09331177175045010,0.1265459358692170,-0.02077020332217220,-0.04135890305042270,0.02234992384910580,-0.004640758037567140
2022-11-12T01:22:19.915-07:00,0.04714272171258930,0.09102918952703480,-0.0216386578977108,-0.05792319774627690,-0.01840411126613620,-0.02827060222625730
2022-11-12T01:22:19.925-07:00,-0.001326544210314750,0.0993126854300499,-0.01413600146770480,-0.0419611930847168,-0.05634763091802600,0.01529973745346070
2022-11-12T01:22:19.935-07:00,-0.0276008602231741,0.06643552333116530,-0.006016289815306660,-0.00479927659034729,-0.02398978173732760,-0.008631765842437740
2022-11-12T01:22:19.946-07:00,-0.04621342569589620,0.07083373516798020,-0.00763708958402276,0.005232781171798710,0.002145528793334960,0.0009559392929077150
2022-11-12T01:22:19.974-07:00,-0.05928322300314900,-0.001394055085256700,0.0137121407315135,0.01696965098381040,0.008208408951759340,-0.01899772882461550
2022-11-12T01:22:19.976-07:00,-0.07303231954574590,0.06687527894973760,0.006255823187530040,-0.01289205253124240,-0.0160951241850853,-0.0002359747886657720
2022-11-12T01:22:19.978-07:00,-0.03915238752961160,0.06956852972507480,0.03226904943585400,-0.04878079891204830,-0.01012832671403890,-0.01644051074981690
2022-11-12T01:22:19.986-07:00,0.001705029979348180,0.0174733754247427,0.002261879853904250,-0.07925137877464290,0.01007133722305300,-0.004408121109008790
2022-11-12T01:22:19.996-07:00,0.04903349652886390,-0.1706015467643740,0.0640014111995697,0.003766849637031560,0.06553484499454500,0.0185006856918335
2022-11-12T01:22:20.006-07:00,0.04499880596995350,-0.1685783416032790,-0.06462207436561580,0.0982707142829895,0.08207600563764570,0.03700363636016850
2022-11-12T01:22:20.016-07:00,0.1344068795442580,-0.0945919081568718,-0.0936121866106987,0.0321706086397171,0.03474678844213490,8.6367130279541E-05
2022-11-12T01:22:20.027-07:00,0.1870655715465550,-0.02430256642401220,-0.02368875965476040,-0.05445122718811040,0.04290850460529330,-0.01075941324234010
2022-11-12T01:22:20.036-07:00,0.1504602879285810,0.01820055209100250,-0.0188700370490551,-0.07797709107398990,0.01884859800338750,-0.001780390739440920
2022-11-12T01:22:20.046-07:00,0.08266206085681920,0.02400757372379300,-0.05616094917058950,-0.04468438029289250,-0.03415992110967640,0.004311740398406980
2022-11-12T01:22:20.056-07:00,0.01211446337401870,0.001422570669092240,-0.009527933783829210,-0.01758083701133730,-0.06063976883888250,0.004543185234069820
2022-11-12T01:22:20.066-07:00,-0.03483067452907560,0.005196536425501110,-0.01718958094716070,0.0007238835096359250,-0.04184348881244660,-0.005431652069091800
2022-11-12T01:22:20.076-07:00,-0.06323997676372530,0.02352524362504480,-0.008926591835916040,0.001411288976669310,-0.0309644490480423,-0.0145103931427002
2022-11-12T01:22:20.086-07:00,-0.07563299685716630,0.02356971800327300,0.03674821555614470,-0.01384007930755620,-0.02758292108774190,-0.02225160598754880
2022-11-12T01:22:20.096-07:00,-0.101477712392807,-0.0001906724646687510,0.08042166382074360,-0.02692630887031560,-0.03204439580440520,-0.01746726036071780
2022-11-12T01:22:20.106-07:00,-0.1309977918863300,-0.08705818653106690,0.1072359681129460,-0.01691162586212160,-0.03017532080411910,-0.00648033618927002
2022-11-12T01:22:20.116-07:00,-0.17079958319664,-0.08668608218431470,0.06905342638492580,0.02021333575248720,-0.03143739700317380,0.0004190206527709960
2022-11-12T01:22:20.126-07:00,-0.1658322811126710,-0.0454731360077858,0.1061086505651470,-0.04089710116386410,-0.02729210257530210,-0.01321834325790410
2022-11-12T01:22:20.136-07:00,-0.1116774529218670,-0.0824444368481636,0.1367568373680120,-0.05375444889068600,0.03187359869480130,-0.0008119940757751470
2022-11-12T01:22:20.146-07:00,-0.05607065185904500,-0.1477906852960590,0.08991050720214840,0.007835403084754940,0.06657354533672330,-0.00492328405380249
2022-11-12T01:22:20.156-07:00,-0.007854052819311620,-0.1898484528064730,0.02417862974107270,0.02625638246536260,0.04949912428855900,-0.01173341274261480
2022-11-12T01:22:20.166-07:00,0.05616860091686250,-0.1699517071247100,-0.02261843718588350,0.01913091540336610,0.04019677639007570,-0.007791101932525640
2022-11-12T01:22:20.176-07:00,0.09507156163454060,-0.0747181698679924,-0.03858142346143720,-0.007430106401443480,0.04177483916282650,-0.00881117582321167
2022-11-12T01:22:20.186-07:00,0.1180562451481820,0.006518895272165540,-0.02519451081752780,-0.04434292018413540,0.03219635784626010,-0.01205712556838990
2022-11-12T01:22:20.196-07:00,0.1000185832381250,0.05172931775450710,-0.02020827680826190,-0.05392545461654660,0.01700053364038470,-0.004160702228546140
2022-11-12T01:22:20.206-07:00,0.0805029422044754,0.0533173605799675,-0.0310452114790678,-0.03647217154502870,0.004649057984352110,0.00359654426574707
2022-11-12T01:22:20.216-07:00,0.07910994440317150,0.03811514005064960,-0.03538296744227410,-0.009569287300109860,0.00330837070941925,0.01734143495559690
2022-11-12T01:22:20.226-07:00,0.09914436936378480,0.01530409883707760,-0.02623474225401880,-0.002483755350112920,0.01543670892715450,0.01402187347412110
2022-11-12T01:22:20.236-07:00,0.1240562796592710,-0.0279945395886898,-0.01140306517481800,-0.005551725625991820,0.02230525016784670,0.001924514770507810
2022-11-12T01:22:20.246-07:00,0.1234011352062230,-0.07366695255041120,-0.005289246793836360,0.005895435810089110,0.02182298898696900,0.0003423094749450680
2022-11-12T01:22:20.256-07:00,0.1130635142326360,-0.07933359593153,-0.05309645086526870,0.01488721370697020,0.003944873809814450,-0.002525925636291500
2022-11-12T01:22:20.266-07:00,0.1273295432329180,-0.02407300285995010,-0.05951973050832750,-0.01329635083675390,-0.01811307668685910,-0.006538867950439450
2022-11-12T01:22:20.276-07:00,0.1155882179737090,0.01511378213763240,-0.0003102007322013380,-0.03993780910968780,-0.004734218120574950,-0.00909888744354248
2022-11-12T01:22:20.286-07:00,0.07811994105577470,-0.005597888026386500,0.006301895715296270,-0.03026692569255830,-0.003689445555210110,-0.01233041286468510
2022-11-12T01:22:20.296-07:00,0.04261517897248270,-0.003226043656468390,0.005170584656298160,0.01197221875190740,-0.02930489927530290,-0.01890844106674190
2022-11-12T01:22:20.306-07:00,0.02902959659695630,0.02308305911719800,0.04674226045608520,-0.001362934708595280,-0.04284558445215230,-0.0228118896484375
2022-11-12T01:22:20.316-07:00,0.01392734050750730,0.02257759124040600,0.04539576917886730,-0.03028130531311040,-0.02492927014827730,-0.02243030071258550
2022-11-12T01:22:20.326-07:00,0.0002240464091300960,0.03582441806793210,0.04884403198957440,-0.02547559142112730,-0.01720704883337020,-0.01115936040878300
2022-11-12T01:22:20.336-07:00,-0.03352033346891400,0.02644716389477250,0.02369366772472860,-0.01675383746623990,-0.001765415072441100,0.002753198146820070
2022-11-12T01:22:20.347-07:00,-0.05483308061957360,0.01156888157129290,-0.01809266023337840,-0.01929473876953130,0.005249537527561190,0.01305258274078370
2022-11-12T01:22:20.357-07:00,-0.04257847741246220,0.02773446775972840,-0.04215165972709660,-0.001838579773902890,0.02088990807533260,0.02446937561035160
2022-11-12T01:22:20.367-07:00,-0.01216171495616440,0.05389390140771870,-0.02887073904275890,-0.001432880759239200,0.03228630870580670,0.02065986394882200
2022-11-12T01:22:20.377-07:00,0.001464182510972020,0.09300684928894040,-0.001951240468770270,-0.0250476747751236,0.02339973300695420,0.01236122846603390
2022-11-12T01:22:20.387-07:00,0.0003704223781824110,0.1201939955353740,-0.01252984907478090,-0.03570558130741120,0.0006149336695671080,-0.00081634521484375
2022-11-12T01:22:20.397-07:00,0.01161511987447740,0.08799900859594350,-0.01382174901664260,-0.01739233732223510,-0.0117255225777626,-0.006747782230377200
2022-11-12T01:22:20.407-07:00,0.01011735759675500,0.04807635769248010,-0.01351575180888180,0.002644553780555730,-0.000757165253162384,-0.002313077449798580
2022-11-12T01:22:20.417-07:00,0.01376309059560300,0.01594838313758370,-0.02717031165957450,0.01435953378677370,0.01093016564846040,0.003188848495483400
2022-11-12T01:22:20.427-07:00,0.02365300618112090,-0.01609263941645620,-0.02368529886007310,0.01197084784507750,0.01477649062871930,0.00665360689163208
2022-11-12T01:22:20.437-07:00,0.04092686995863910,-0.01610255986452100,-0.03284044563770290,0.01022055745124820,0.02504692226648330,0.007818758487701420
2022-11-12T01:22:20.451-07:00,0.0450153537094593,-0.002230154583230620,-0.02350873127579690,-0.009693756699562070,0.0122203603386879,-0.001552283763885500
2022-11-12T01:22:20.468-07:00,0.04312969744205480,0.007855369709432130,-0.009098365902900700,-0.02597777545452120,0.002362281084060670,-0.007349967956542970
2022-11-12T01:22:20.470-07:00,0.0180086363106966,-0.002250794088467960,0.006659824401140210,-0.01977084577083590,-0.004034340381622310,-0.006096005439758300
2022-11-12T01:22:20.477-07:00,-0.00108962319791317,-0.008026724681258200,0.000424298457801342,-0.007799848914146420,-0.01187757402658460,-0.008509576320648190
2022-11-12T01:22:20.488-07:00,-0.01765288785099980,0.006544495467096570,0.02024993486702440,-0.01067082583904270,-0.01694688946008680,-0.01606982946395870
2022-11-12T01:22:20.500-07:00,-0.02236352115869520,0.01762940362095830,0.01901049911975860,-0.0161394327878952,-0.008431576192379000,-0.01589512825012210
2022-11-12T01:22:20.508-07:00,-0.01553384400904180,0.009672144427895550,0.01562908478081230,-0.01712100207805630,-0.007848650217056270,-0.01082134246826170
2022-11-12T01:22:20.517-07:00,-0.00596640445291996,-0.01700503937900070,0.04364500567317010,-0.01238302886486050,0.002907231450080870,-0.004983425140380860
2022-11-12T01:22:20.528-07:00,0.01545020565390590,-0.03479069098830220,0.0376313216984272,0.0003921389579772950,0.004990875720977780,-9.29832458496094E-05
2022-11-12T01:22:20.538-07:00,0.008669629693031310,-0.03134280070662500,0.01261358708143230,-0.005424797534942630,0.007434315979480740,-0.0008727312088012700
2022-11-12T01:22:20.548-07:00,0.01315439119935040,-0.01734176278114320,0.02856805175542830,-0.007711008191108700,0.01016225665807720,0.005089342594146730
2022-11-12T01:22:20.558-07:00,0.0118709821254015,-0.001539863180369140,0.004431556910276410,-0.0166393369436264,0.009630106389522550,0.001194000244140630
2022-11-12T01:22:20.571-07:00,0.01425797306001190,0.0224168673157692,0.01789356954395770,-0.02699248492717740,0.005591690540313720,-3.70144844055176E-05
2022-11-12T01:22:20.578-07:00,0.004987142980098720,0.02769348956644540,0.02891585975885390,-0.0243440568447113,0.006801851093769070,-0.002971649169921880
2022-11-12T01:22:20.589-07:00,-0.02235020510852340,0.02386759221553800,0.01669914275407790,-0.01101596653461460,-0.006355240941047670,-0.0008965730667114260
2022-11-12T01:22:20.598-07:00,-0.01932808384299280,0.008661774918437000,0.0360986739397049,-0.005787476897239690,-0.01845862716436390,0.000396430492401123
2022-11-12T01:22:20.608-07:00,-0.02071638964116570,0.005362118128687140,0.03319556266069410,-0.001583307981491090,-0.006255447864532470,0.002040386199951170
2022-11-12T01:22:20.619-07:00,-0.01381111145019530,0.004911544732749460,0.04030859842896460,-0.006563872098922730,-0.003375187516212460,-0.000624537467956543
2022-11-12T01:22:20.628-07:00,0.001769179478287700,-0.002987657440826300,0.04171448200941090,-0.008410260081291200,-0.002911984920501710,-0.003978073596954350
2022-11-12T01:22:20.638-07:00,-0.009591732174158100,-0.02165255509316920,0.04963871464133260,-0.0069618821144104,0.003707356750965120,-0.003501415252685550
2022-11-12T01:22:20.648-07:00,-0.01558597479015590,-0.03770555928349500,0.09973756968975070,-0.0006226301193237310,0.00446174293756485,-0.003306210041046140
2022-11-12T01:22:20.658-07:00,-0.04375546053051950,-0.04925445467233660,0.02894462272524830,0.004530981183052060,0.004630006849765780,-0.005989909172058110
2022-11-12T01:22:20.668-07:00,-0.008765785954892640,-0.06278890371322630,0.03808192908763890,-0.0002676993608474730,0.004249081015586850,-0.003904163837432860
2022-11-12T01:22:20.678-07:00,0.01225411146879200,-0.07602304965257650,0.04011525213718410,-0.00018291175365448,0.03809527307748800,0.002065777778625490
2022-11-12T01:22:20.689-07:00,0.03369788452982900,-0.03228888660669330,0.01940438151359560,-0.01010170578956600,0.02566538006067280,0.0001431107521057130
2022-11-12T01:22:20.698-07:00,0.04135047644376760,-0.05707332864403730,0.02910814061760900,-0.02163994312286380,0.0146777331829071,-0.009514212608337400
2022-11-12T01:22:20.708-07:00,0.03709021955728530,-0.06031972169876100,0.03410742804408070,-0.01626868546009060,0.007721379399299620,0.002288222312927250
2022-11-12T01:22:20.719-07:00,0.02452762238681320,-0.06223619729280470,0.03451382741332050,0.0004368126392364500,-0.001513920724391940,-0.002838253974914550
2022-11-12T01:22:20.728-07:00,0.02261547185480600,-0.05690455064177510,0.03986651450395580,-0.00803084671497345,-0.005348540842533110,-0.005283653736114500
2022-11-12T01:22:20.739-07:00,-0.01157715171575550,-0.007119917776435610,0.053641177713871,-0.0181252658367157,-0.0168195366859436,-0.01276761293411260
2022-11-12T01:22:20.748-07:00,-0.03863327205181120,-0.03185642138123510,0.04723920673131940,-0.03541596233844760,-0.0202045813202858,-0.01211482286453250
2022-11-12T01:22:20.758-07:00,-0.05734767019748690,-0.03330961242318150,0.05528754740953450,-0.01376301050186160,-0.02489420771598820,-0.0009807944297790530
2022-11-12T01:22:20.769-07:00,-0.07263128459453580,-0.04539131000638010,0.03542808815836910,0.008185431361198430,-0.003985479474067690,-0.006891012191772460
2022-11-12T01:22:20.778-07:00,-0.06147746741771700,-0.0284224096685648,0.02738907188177110,-0.01590318977832790,-0.002454213798046110,0.001580595970153810
2022-11-12T01:22:20.788-07:00,-0.05221392586827280,-0.002743944991379980,0.03264881670475010,-0.01770892739295960,0.01433210074901580,0.001879215240478520
2022-11-12T01:22:20.799-07:00,-0.02787759527564050,0.003921847324818370,0.005960478447377680,-0.03090627491474150,0.01846230030059810,0.0002856850624084470
2022-11-12T01:22:20.809-07:00,0.009663920849561690,0.05377595871686940,0.01624001190066340,-0.02741026878356930,0.009711682796478270,0.004263162612915040
2022-11-12T01:22:20.819-07:00,0.02325313538312910,0.08221302181482320,0.02379406988620760,-0.03018768131732940,0.01959004253149030,-0.007507145404815670
2022-11-12T01:22:20.829-07:00,0.002391261979937550,0.1105045825243000,0.03942123427987100,-0.03405894339084630,0.0009463205933570860,-0.002268016338348390
2022-11-12T01:22:20.840-07:00,-0.05048943310976030,0.1124882698059080,0.05220413953065870,-0.02681730687618260,-0.01716721802949910,-0.006912827491760250
2022-11-12T01:22:20.849-07:00,-0.117494560778141,0.1598307490348820,0.06232921406626700,-0.01564601063728330,-0.03426121175289150,-0.003845810890197750
2022-11-12T01:22:20.859-07:00,-0.1175479590892790,0.07845134288072590,0.03091482818126680,-0.01011946797370910,-0.03476332128047940,-0.01023948192596440
2022-11-12T01:22:20.869-07:00,-0.1491072177886960,0.102509543299675,0.08058438450098040,-0.003288790583610540,-0.02551095187664030,0.01159346103668210
2022-11-12T01:22:20.879-07:00,-0.1589566618204120,0.1123890653252600,0.06528158485889440,-0.02094905078411100,-0.01144512742757800,-0.01191252470016480
2022-11-12T01:22:20.890-07:00,-0.16067174077034,0.1387141495943070,0.0536491721868515,-0.007932871580123900,-0.01268251240253450,-0.00180661678314209
2022-11-12T01:22:20.899-07:00,-0.1666611135005950,0.09586115926504140,0.0585256814956665,-0.001705721020698550,0.001866713166236880,0.002899229526519780
2022-11-12T01:22:20.909-07:00,-0.1091032773256300,0.07362429797649380,0.04407324269413950,-0.04293404519557950,0.005083553493022920,-0.008516192436218260
2022-11-12T01:22:20.919-07:00,-0.0509895384311676,0.003465082030743360,0.04505807906389240,0.01400940120220180,0.04584331065416340,-0.003418385982513430
2022-11-12T01:22:20.929-07:00,0.009989125654101370,-0.02382645942270760,0.02574536763131620,0.02628912031650540,0.05543668568134310,0.00811690092086792
2022-11-12T01:22:20.940-07:00,0.0352482795715332,-0.0118527552112937,0.02775418944656850,0.01502721011638640,0.04404482245445250,0.00175940990447998
2022-11-12T01:22:20.956-07:00,0.0380411371588707,-0.002951405011117460,0.0196701642125845,-0.01704998314380650,0.02632708102464680,-0.002736985683441160
2022-11-12T01:22:20.974-07:00,0.01585733704268930,-0.01173191331326960,0.005399083718657490,-0.02089621126651760,0.007017023861408230,0.0002016425132751470
2022-11-12T01:22:20.976-07:00,0.005889123305678370,-0.01530241407454010,0.00030871806666255,-0.005020841956138610,-0.0002650097012519840,0.005638718605041500
2022-11-12T01:22:20.979-07:00,0.001044267788529400,-0.008013042621314530,0.01023884583264590,-0.0009618997573852540,9.98824834823608E-05,0.01223772764205930
2022-11-12T01:22:20.990-07:00,-0.003123046830296520,-0.01090603414922950,0.02489102631807330,-0.004921868443489080,-0.003049187362194060,0.002414107322692870
2022-11-12T01:22:20.999-07:00,-0.01807832717895510,-0.01759239844977860,0.0234377384185791,-0.003869935870170590,-0.00960204005241394,-0.005015254020690920
2022-11-12T01:22:21.009-07:00,-0.04161854088306430,-0.02397439815104010,0.02250669896602630,-0.001180052757263180,-0.01257838308811190,-0.005004227161407470
2022-11-12T01:22:21.020-07:00,-0.04364690184593200,-0.02118650265038010,0.0210209209471941,-0.005310490727424620,-0.008921578526496890,0.0018424391746521
2022-11-12T01:22:21.029-07:00,-0.03385446220636370,-0.01818858273327350,0.02882558107376100,-0.01116973161697390,-0.002828113734722140,0.003438711166381840
2022-11-12T01:22:21.040-07:00,-0.02968764677643780,-0.02266405709087850,0.02933291345834730,-0.01495178043842320,0.006504461169242860,0.003471136093139650
2022-11-12T01:22:21.049-07:00,-0.02371577359735970,-0.02397033758461480,0.02353521063923840,-0.01152327656745910,0.009792372584342960,0.0004084110260009770
2022-11-12T01:22:21.060-07:00,-0.01971627026796340,-0.02305843867361550,0.01539206318557260,-0.01133987307548520,0.004555061459541320,-0.0009216070175170900
2022-11-12T01:22:21.070-07:00,-0.01338939927518370,-0.01737738400697710,0.01129665412008760,-0.01211726665496830,0.004824012517929080,-0.007186710834503170
2022-11-12T01:22:21.079-07:00,0.007777269929647450,-0.01400062721222640,0.01866642013192180,-0.01573124527931210,0.01174483448266980,-0.006064832210540770
2022-11-12T01:22:21.090-07:00,0.0135872233659029,-0.01026288047432900,0.02447024546563630,-0.01554524898529050,0.01326625049114230,-0.004102528095245360
2022-11-12T01:22:21.099-07:00,-0.0006817281246185300,-0.01681159436702730,0.0155398678034544,-0.01189462840557100,0.009408324956893920,-0.00506126880645752
2022-11-12T01:22:21.109-07:00,-0.02170418761670590,-0.01853172853589060,0.009570659138262270,-0.009958863258361820,0.0002873316407203670,-0.010170578956604
2022-11-12T01:22:21.120-07:00,-0.02471941895782950,-0.02001111581921580,0.0133377006277442,-0.01336364448070530,-6.35161995887756E-05,-0.01049149036407470
2022-11-12T01:22:21.130-07:00,-0.01661462150514130,-0.01164825726300480,0.01690873131155970,-0.01685118675231930,0.004227116703987120,-0.007611572742462160
2022-11-12T01:22:21.140-07:00,-0.009698391892015930,-0.01153613813221460,0.02546839788556100,-0.01631258428096770,0.006408601999282840,-0.001745879650115970
2022-11-12T01:22:21.150-07:00,-0.01543723791837690,-0.004120033700019120,0.02970069646835330,-0.01816275715827940,-0.0002398490905761720,0.002195060253143310
2022-11-12T01:22:21.159-07:00,-0.01618039235472680,-0.005228574387729170,0.03039338439702990,-0.01685783267021180,-0.00302412360906601,-0.001586019992828370
2022-11-12T01:22:21.170-07:00,-0.01010225899517540,-0.01048245839774610,0.02685404196381570,-0.01120530068874360,-0.001145407557487490,-0.002385318279266360
2022-11-12T01:22:21.180-07:00,-0.004108814522624020,-0.004732959903776650,0.02994996681809430,-0.008528098464012150,0.003911375999450680,-0.001945137977600100
2022-11-12T01:22:21.190-07:00,0.01793043874204160,-0.008840619586408140,0.02761490643024450,-0.009234830737113950,0.01050242781639100,0.001210808753967290
2022-11-12T01:22:21.200-07:00,0.02923232689499860,-0.01311788987368350,0.02676269598305230,-0.005828306078910830,0.01435026526451110,0.004163920879364010
2022-11-12T01:22:21.210-07:00,0.03030158579349520,-0.02103466913104060,0.01315314322710040,-0.002924114465713500,0.01399905234575270,0.005955219268798830
2022-11-12T01:22:21.220-07:00,0.03269966691732410,-0.02589723467826840,0.006721875630319120,-0.001403912901878360,0.01287265121936800,0.005579531192779540
2022-11-12T01:22:21.230-07:00,0.04630308598279950,-0.02183964103460310,0.008133617229759690,-0.004642024636268620,0.009633727371692660,0.004380166530609130
2022-11-12T01:22:21.240-07:00,0.05550091713666920,-0.02534709125757220,0.01469990704208610,-0.01074416935443880,0.009181439876556400,0.007595956325531010
2022-11-12T01:22:21.251-07:00,0.04603017866611480,-0.03330248594284060,0.02140334993600850,-0.009548231959342960,0.003928720951080320,-0.0009394288063049320
2022-11-12T01:22:21.260-07:00,0.02140237018466000,-0.03001085296273230,0.01736466586589810,-0.00975191593170166,-0.009602479636669160,-0.00625455379486084
2022-11-12T01:22:21.270-07:00,0.004359204322099690,-0.02346320450305940,0.01388364844024180,-0.01513567566871640,-0.01513822376728060,-0.0161203145980835
2022-11-12T01:22:21.280-07:00,-0.008301031775772570,-0.01779669709503650,0.01932661607861520,-0.01872675120830540,-0.01057618856430050,-0.02350711822509770
2022-11-12T01:22:21.290-07:00,-0.01953397877514360,-0.02043056301772590,0.02084195613861080,-0.01962868869304660,0.0007266849279403690,-0.02432429790496830
2022-11-12T01:22:21.300-07:00,-0.03171264752745630,-0.0191535446792841,0.01250865776091810,-0.01752650737762450,0.005597934126853940,-0.0174562931060791
2022-11-12T01:22:21.310-07:00,-0.03117601945996280,-0.01158643886446950,0.01134911831468340,-0.01919141411781310,-0.003090351819992070,-0.007218539714813230
2022-11-12T01:22:21.320-07:00,-0.02552715688943860,0.006321155931800600,0.01007692702114580,-0.02325887978076940,-0.001426838338375090,-9.95397567749023E-05
2022-11-12T01:22:21.330-07:00,-0.006388082168996330,0.0164885725826025,0.01432626694440840,-0.02220170199871060,0.006462082266807560,0.0004741549491882320
2022-11-12T01:22:21.340-07:00,0.003304624930024150,0.01451849844306710,0.01892634481191640,-0.01547357439994810,0.006542019546031950,0.001269400119781490
2022-11-12T01:22:21.350-07:00,0.005441546440124510,0.01707007363438610,0.01107481215149160,-0.007657170295715330,0.005852192640304570,0.003453254699707030
2022-11-12T01:22:21.360-07:00,0.002907147631049160,0.01821989379823210,0.008879302069544790,-0.007418498396873470,-0.0005415603518486020,0.005456924438476560
2022-11-12T01:22:21.370-07:00,0.0113656148314476,0.01889606937766080,0.009112595580518250,-0.009797170758247380,0.0009940564632415770,0.01109158992767330
2022-11-12T01:22:21.381-07:00,0.01358609087765220,0.01227125711739060,0.01010249275714160,-0.009512007236480710,0.007734492421150210,0.008259773254394530
2022-11-12T01:22:21.391-07:00,0.01373309828341010,0.008457610383629800,0.005733577534556390,-0.00610777735710144,0.008590981364250180,0.009230971336364750
2022-11-12T01:22:21.400-07:00,0.02090658992528920,0.008361736312508580,0.006724539212882520,-0.004735782742500310,0.002532355487346650,0.005370795726776120
2022-11-12T01:22:21.410-07:00,0.020643200725317,-0.003052039537578820,0.00685157161206007,-0.005105704069137570,0.005902647972106930,-0.001149356365203860
2022-11-12T01:22:21.420-07:00,0.02849559858441350,-0.004349597729742530,0.001357204280793670,-0.003699958324432370,0.01026710867881780,-0.00100177526473999
2022-11-12T01:22:21.430-07:00,0.03134758025407790,-0.004115772433578970,0.006508024409413340,-0.007109031081199650,0.005681298673152920,-0.003518164157867430
2022-11-12T01:22:21.441-07:00,0.02574352361261850,-0.004944847896695140,0.002305556088685990,-0.01204743981361390,0.005823396146297460,-0.00305485725402832
2022-11-12T01:22:21.454-07:00,0.01858787424862390,-0.004622605163604020,0.00571120623499155,-0.009987175464630130,0.004869326949119570,-0.009727776050567630
2022-11-12T01:22:21.470-07:00,0.01179002225399020,-0.007568194530904290,-0.001584256999194620,-0.006196022033691410,0.004973888397216800,-0.01247763633728030
2022-11-12T01:22:21.472-07:00,0.01198576390743260,-0.003641896415501830,-0.001040705479681490,-0.009151175618171690,0.00135020911693573,-0.01025652885437010
2022-11-12T01:22:21.481-07:00,0.008204242214560510,-0.001159464009106160,0.005208134651184080,-0.01331818103790280,0.00452018529176712,-0.011097252368927
2022-11-12T01:22:21.492-07:00,0.01476254127919670,0.004503481555730100,0.003266157582402230,-0.01213617622852330,0.002892240881919860,-0.006588935852050780
2022-11-12T01:22:21.501-07:00,0.01602857746183870,0.009556064382195470,0.003224613144993780,-0.0104643851518631,-0.001322656869888310,-0.001830458641052250
2022-11-12T01:22:21.511-07:00,0.0219996515661478,0.0148357804864645,0.008003922179341320,-0.01263962686061860,0.0003580078482627870,-4.58359718322754E-05
2022-11-12T01:22:21.521-07:00,0.03164465725421910,0.01648071594536300,0.009204741567373280,-0.008771941065788270,0.004987157881259920,-0.004128336906433110
2022-11-12T01:22:21.531-07:00,0.04109514504671100,0.01638031378388410,0.01165618095546960,-0.004723995923995970,0.007990851998329160,0.001325011253356930
2022-11-12T01:22:21.541-07:00,0.03518599271774290,0.01422328688204290,0.01258908491581680,-0.006216302514076230,0.004969283938407900,0.006352245807647710
2022-11-12T01:22:21.551-07:00,0.01655984483659270,0.01330902427434920,0.006566080264747140,-0.006956517696380620,-0.00568602979183197,0.008111953735351560
2022-11-12T01:22:21.561-07:00,0.0151671115309,0.01463304832577710,0.004489347338676450,-0.006581246852874760,-0.007560446858406070,0.006450831890106200
2022-11-12T01:22:21.571-07:00,0.01440970785915850,0.0158354640007019,0.007473153062164780,-0.007077232003211980,-0.0001322478055953980,0.002954542636871340
2022-11-12T01:22:21.582-07:00,0.01585863344371320,0.0133937131613493,0.005510403774678710,-0.004584118723869320,0.006976805627346040,-0.002048075199127200
2022-11-12T01:22:21.591-07:00,0.008978355675935750,0.005613553803414110,9.16700810194016E-05,-0.003692626953125,0.002861574292182920,-0.005207300186157230
2022-11-12T01:22:21.601-07:00,0.009879935532808300,0.009143739938735960,-0.001765618100762370,-0.006770268082618710,0.001257151365280150,-0.01221060752868650
2022-11-12T01:22:21.611-07:00,0.02446127682924270,0.009381560608744620,0.003419290296733380,-0.009956300258636480,0.004776217043399810,-0.01483052968978880
2022-11-12T01:22:21.622-07:00,0.02206995710730550,0.01301497779786590,0.01006254553794860,-0.01399444043636320,0.005189992487430570,-0.01504093408584600
2022-11-12T01:22:21.631-07:00,0.01748052984476090,0.01154651120305060,0.006155154667794700,-0.01522760093212130,0.005390971899032590,-0.01487010717391970
2022-11-12T01:22:21.641-07:00,0.009978907182812690,0.01219023019075390,0.003335665911436080,-0.01191680133342740,0.0007128491997718810,-0.01462841033935550
2022-11-12T01:22:21.652-07:00,0.01497632823884490,0.01265894714742900,0.009138694033026700,-0.008711099624633790,-0.001746430993080140,-0.01257157325744630
2022-11-12T01:22:21.661-07:00,0.02196802385151390,0.00973309762775898,0.02147046104073520,-0.01122932136058810,0.001109778881073000,-0.007829666137695310
2022-11-12T01:22:21.671-07:00,0.006158435717225080,0.008692600764334200,0.01027719490230080,-0.01198743283748630,-0.0003658980131149290,0.001253962516784670
2022-11-12T01:22:21.681-07:00,-0.0100602163001895,0.008187132887542250,-0.002324083121493460,-0.01118120551109310,-0.01022586971521380,0.007060825824737550
2022-11-12T01:22:21.691-07:00,-0.004631096497178080,0.02315356582403180,-0.005112146493047480,-0.01105017960071560,-0.002210378646850590,0.01066744327545170
2022-11-12T01:22:21.702-07:00,0.01288514584302900,0.02286211587488650,0.004454460926353930,-0.01185543835163120,0.007103919982910160,0.01177269220352170
2022-11-12T01:22:21.711-07:00,0.01215064525604250,0.01698531955480580,-0.002253243234008550,-0.01179632544517520,0.00976727157831192,0.01299828290939330
2022-11-12T01:22:21.721-07:00,0.008299417793750760,0.009037413634359840,-0.009568413719534870,-0.008700355887413030,0.003402434289455410,0.01422464847564700
2022-11-12T01:22:21.732-07:00,0.01858561113476750,0.005086880642920730,-0.01194315403699880,-0.007691055536270140,0.003684014081954960,0.01257222890853880
2022-11-12T01:22:21.742-07:00,0.0427030622959137,-0.0001431683776900170,-0.01148535683751110,-0.007188990712165830,0.01040216535329820,0.01004856824874880
2022-11-12T01:22:21.752-07:00,0.05134368687868120,-0.002572770230472090,-0.005569411441683770,-0.009583204984664920,0.01347985863685610,0.01117545366287230
2022-11-12T01:22:21.762-07:00,0.04610881209373470,-0.002440777374431490,-0.01004112511873250,-0.01104284822940830,0.01321792602539060,0.007001221179962160
2022-11-12T01:22:21.772-07:00,0.03028777427971360,-0.004201659467071300,-0.01444812398403880,-0.01329843699932100,0.002133645117282870,0.001971542835235600
2022-11-12T01:22:21.782-07:00,0.02479803189635280,-0.001792663824744520,-0.01060598157346250,-0.01122778654098510,3.64184379577637E-05,-0.003031075000762940
2022-11-12T01:22:21.792-07:00,0.02850222215056420,-0.003083497984334830,-0.004613336175680160,-0.01457417011260990,0.002663731575012210,-0.008396387100219730
2022-11-12T01:22:21.802-07:00,0.01950057409703730,0.003744214307516810,-0.004666333552449940,-0.01520225405693050,-0.0001371651887893680,-0.01100456714630130
2022-11-12T01:22:21.812-07:00,0.02004465647041800,0.003454995341598990,-0.002505178330466150,-0.01442146301269530,-0.002101317048072820,-0.01752251386642460
2022-11-12T01:22:21.822-07:00,0.02075718529522420,-0.00041151512414217,0.002077589742839340,-0.01407289505004880,-0.0001829043030738830,-0.02171868085861210
2022-11-12T01:22:21.832-07:00,0.0178250465542078,0.003904936369508510,-0.002387200016528370,-0.01238876581192020,0.00115174800157547,-0.01827776432037350
2022-11-12T01:22:21.842-07:00,0.02486065030097960,0.004121917299926280,0.002174794673919680,-0.01016347110271450,0.00314803421497345,-0.01513028144836430
2022-11-12T01:22:21.852-07:00,0.01893698051571850,0.0008547512115910650,0.0004956717602908610,-0.007290944457054140,0.003886491060256960,-0.01192808151245120
2022-11-12T01:22:21.862-07:00,0.01471617259085180,0.003647841513156890,0.001073844265192750,-0.003841355443000790,0.0006937682628631590,-0.007148146629333500
2022-11-12T01:22:21.872-07:00,0.01164900697767740,0.00212051859125495,-0.00265564676374197,-0.005215153098106380,-0.00106116384267807,-0.001734793186187740
2022-11-12T01:22:21.882-07:00,0.01136854290962220,0.002207637298852210,-0.004394691437482830,-0.007361918687820440,0.0005529001355171200,0.00468522310256958
2022-11-12T01:22:21.892-07:00,0.01767810620367530,0.006957917008548980,-0.004071915987879040,-0.007658541202545170,0.002251073718070980,0.007597923278808590
2022-11-12T01:22:21.902-07:00,0.01808060705661770,0.005317576695233580,-0.003215176751837130,-0.009192705154418950,0.004123978316783910,0.008052945137023930
2022-11-12T01:22:21.912-07:00,0.0111119132488966,0.008884347975254060,-0.01008453406393530,-0.009457260370254520,0.00157523900270462,0.009167194366455080
2022-11-12T01:22:21.922-07:00,0.01605760306119920,0.004803653340786700,-0.006395258009433750,-0.009292364120483400,0.0005245432257652280,0.007914483547210690
2022-11-12T01:22:21.932-07:00,0.006115492433309560,-0.0002038883976638320,-0.009173734113574030,-0.009308010339736940,0.002351120114326480,0.00601726770401001
2022-11-12T01:22:21.942-07:00,0.01086730323731900,0.007518279831856490,-0.008244290016591550,-0.009010031819343570,-0.002206340432167050,0.00684744119644165
2022-11-12T01:22:21.955-07:00,0.01554141938686370,0.009667716920375820,0.0007939459756016730,-0.01403112709522250,-0.00590195506811142,0.004848599433898930
2022-11-12T01:22:21.972-07:00,0.01555343344807630,0.01129354443401100,0.004336216486990450,-0.01469272375106810,-0.005762077867984770,0.006832599639892580
2022-11-12T01:22:21.974-07:00,0.01184285432100300,0.00686816917732358,0.004573769867420200,-0.01127089560031890,-0.0047120600938797,0.005202174186706540
2022-11-12T01:22:21.982-07:00,0.002620991319417950,0.009219074621796610,0.004507191479206090,-0.008379802107810970,-0.003598131239414220,0.005338609218597410
2022-11-12T01:22:21.993-07:00,-0.00561483483761549,0.01350170373916630,0.008762923069298270,-0.01180060207843780,-0.003931976854801180,0.001478850841522220
2022-11-12T01:22:22.003-07:00,-0.02168844267725950,0.007914491929113870,0.01460323482751850,-0.01351138949394230,-0.003800652921199800,-0.001106679439544680
2022-11-12T01:22:22.012-07:00,-0.02924862317740920,0.002717066556215290,0.01735135167837140,-0.009804099798202520,-0.005526207387447360,-0.003240525722503660
2022-11-12T01:22:22.023-07:00,-0.04439198970794680,-0.0001947339624166490,0.02733101323246960,-0.00613422691822052,-0.009034335613250730,-0.003541350364685060
2022-11-12T01:22:22.032-07:00,-0.05650404840707780,-0.004189475439488890,0.04012830182909970,-0.006324693560600280,-0.0101948007941246,-0.0004966259002685550
2022-11-12T01:22:22.042-07:00,-0.07231374084949490,-0.01263559143990280,0.04227215051651000,-0.004636004567146300,-0.0135069414973259,0.002385258674621580
2022-11-12T01:22:22.053-07:00,-0.08881334960460660,-0.01066671591252090,0.04378082603216170,-0.005165696144104000,-0.01713480800390240,0.007866501808166500
2022-11-12T01:22:22.063-07:00,-0.06617181748151780,-0.001325278892181810,0.05195992812514310,-0.00982685387134552,-0.009560525417327880,0.008660852909088140
2022-11-12T01:22:22.072-07:00,-0.05583982169628140,0.003499836195260290,0.05726148188114170,-0.01554687321186070,0.002231404185295110,0.006104648113250730
2022-11-12T01:22:22.083-07:00,-0.05183881893754010,9.29874368011951E-05,0.05212264508008960,-0.01516753435134890,0.01396876573562620,0.01013034582138060
2022-11-12T01:22:22.093-07:00,-0.0618232786655426,0.002466396894305940,0.0400039330124855,-0.01638944447040560,0.005146607756614690,0.01466107368469240
2022-11-12T01:22:22.103-07:00,-0.06880868226289750,0.004861843306571250,0.03484352678060530,-0.01589284837245940,-0.002605319023132320,0.01525664329528810
2022-11-12T01:22:22.113-07:00,-0.08045734465122220,0.006481044925749300,0.03897089511156080,-0.0187385231256485,-0.005898244678974150,0.01817178726196290
2022-11-12T01:22:22.123-07:00,-0.09220578521490100,0.003928571939468380,0.04129663109779360,-0.01702198386192320,-0.008317030966281890,0.01317715644836430
2022-11-12T01:22:22.133-07:00,-0.1034200936555860,0.001807896769605580,0.03952163457870480,-0.01400984823703770,-0.01288298517465590,0.005677402019500730
2022-11-12T01:22:22.143-07:00,-0.1028580591082570,-0.002501463983207940,0.04686769843101500,-0.01327753067016600,-0.01560628414154050,-0.002005636692047120
2022-11-12T01:22:22.153-07:00,-0.09517776966094970,-0.01666495390236380,0.05870597809553150,-0.01220950484275820,-0.01105094701051710,-0.009164750576019290
2022-11-12T01:22:22.163-07:00,-0.09291209280490880,-0.02678935974836350,0.06147406995296480,-0.008682429790496830,-0.005982667207717900,-0.01172620058059690
2022-11-12T01:22:22.173-07:00,-0.1113097369670870,-0.02831641584634780,0.05884632468223570,-0.00935518741607666,-0.00630342960357666,-0.009554743766784670
2022-11-12T01:22:22.183-07:00,-0.1279869824647900,-0.02840243652462960,0.04802084714174270,-0.01355075836181640,-0.01333541423082350,-0.01250076293945310
2022-11-12T01:22:22.193-07:00,-0.1403480470180510,-0.02104305662214760,0.04466792941093450,-0.01687806844711300,-0.01943405717611310,-0.01100772619247440
2022-11-12T01:22:22.203-07:00,-0.1428787857294080,-0.01550561282783750,0.04891460388898850,-0.0164162814617157,-0.01673112809658050,-0.004411697387695310
2022-11-12T01:22:22.213-07:00,-0.155660092830658,-0.006112643983215090,0.047336146235466,-0.01280039548873900,-0.01749763637781140,0.004886806011199950
2022-11-12T01:22:22.223-07:00,-0.1875173449516300,0.001965788658708330,0.04571428149938580,-0.01306387782096860,-0.02968396246433260,0.003834724426269530
2022-11-12T01:22:22.233-07:00,-0.2228484451770780,0.01214891765266660,0.04957613348960880,-0.01360784471035000,-0.03477664291858670,0.001602530479431150
2022-11-12T01:22:22.243-07:00,-0.2665916085243230,0.01791992038488390,0.07005477696657180,-0.008700281381607060,-0.02896299958229070,0.007540225982666020
2022-11-12T01:22:22.254-07:00,-0.3092506527900700,0.03094490803778170,0.1033924892544750,-0.008412659168243410,-0.027547687292099,0.01127398014068600
2022-11-12T01:22:22.263-07:00,-0.3330081701278690,0.05374636128544810,0.12502720952034,-0.0112319141626358,-0.03877207636833190,0.00603032112121582
2022-11-12T01:22:22.273-07:00,-0.3527954518795010,0.02996726334095000,0.1930432766675950,-0.003960862755775450,-0.06029064580798150,-0.01653498411178590
2022-11-12T01:22:22.283-07:00,-0.3477470874786380,-0.01687274686992170,0.2592385411262510,0.02235430479049680,-0.05881381779909130,-0.03676486015319820
2022-11-12T01:22:22.294-07:00,-0.3975324928760530,-0.07553472369909290,0.2744675576686860,0.05137678980827330,-0.04747455567121510,-0.04931831359863280
2022-11-12T01:22:22.304-07:00,-0.4325748383998870,-0.09388104826211930,0.2606279253959660,0.05527061223983770,-0.04050710424780850,-0.0458100438117981
2022-11-12T01:22:22.313-07:00,-0.4440216422080990,-0.1140816584229470,0.2840647995471950,0.02985090017318730,-0.04955976456403730,-0.03026574850082400
2022-11-12T01:22:22.324-07:00,-0.3617088794708250,-0.1061335131525990,0.2421093583107000,0.0110664963722229,-0.06000963225960730,-0.02378487586975100
2022-11-12T01:22:22.334-07:00,-0.2648499608039860,-0.1129187196493150,0.2163507342338560,0.0002314299345016480,-0.06756965070962910,-0.01861006021499630
2022-11-12T01:22:22.344-07:00,-0.1845561861991880,-0.1178333163261410,0.2076416611671450,0.004341542720794680,-0.05770453438162800,-0.02045726776123050
2022-11-12T01:22:22.354-07:00,-0.09363240748643880,-0.1282942146062850,0.1665347069501880,0.01506024599075320,-0.03931131213903430,-0.0393339991569519
2022-11-12T01:22:22.364-07:00,-0.03440746665000920,-0.1553162038326260,0.1167152225971220,0.03021591901779180,-0.02566685527563100,-0.05196124315261840
2022-11-12T01:22:22.374-07:00,-0.01924449391663070,-0.1877873241901400,0.08286671340465550,0.04260750114917760,-0.01385682448744770,-0.05604040622711180
2022-11-12T01:22:22.384-07:00,-0.03521693497896190,-0.2145205438137050,0.02369766309857370,0.03977023065090180,-0.01233037561178210,-0.06002640724182130
2022-11-12T01:22:22.394-07:00,-0.05333468690514570,-0.2090133875608440,-0.04909371957182880,0.02859072387218480,-0.01886174827814100,-0.05555319786071780
2022-11-12T01:22:22.404-07:00,-0.1044773012399670,-0.2306099683046340,-0.09506414085626600,0.01895095407962800,-0.02705772221088410,-0.05695652961730960
2022-11-12T01:22:22.414-07:00,-0.1791398227214810,-0.2692135572433470,-0.09437412023544310,0.01791860163211820,-0.02318227663636210,-0.04517930746078490
2022-11-12T01:22:22.424-07:00,-0.2019608467817310,-0.2488681972026830,-0.1044741570949550,0.02401436865329740,-0.02289775386452680,-0.02410519123077390
2022-11-12T01:22:22.434-07:00,-0.1994625329971310,-0.2240728437900540,-0.1242763549089430,0.02038240432739260,-0.04085847735404970,-0.01011639833450320
2022-11-12T01:22:22.444-07:00,-0.1611240655183790,-0.2210052758455280,-0.09377649426460270,0.0156548023223877,-0.04186434298753740,-0.00613248348236084
2022-11-12T01:22:22.469-07:00,-0.1409841775894170,-0.250583678483963,-0.06687538325786590,0.01509685814380650,-0.06110510975122450,0.005782127380371090
2022-11-12T01:22:22.471-07:00,-0.08807069063186650,-0.2780434787273410,-0.09974517673254010,0.008925959467887880,-0.08619056642055510,0.01731687784194950
2022-11-12T01:22:22.474-07:00,0.030073257163167,-0.3058463335037230,-0.1256066113710400,-0.01024481654167180,-0.1043467968702320,-0.002951264381408690
2022-11-12T01:22:22.484-07:00,0.1637835800647740,-0.2839041948318480,-0.04729395359754560,-0.02257364988327030,-0.100878044962883,-0.03743773698806760
2022-11-12T01:22:22.494-07:00,0.2686080038547520,-0.2465946674346920,0.08696344494819640,-0.009887069463729860,-0.07903560250997540,-0.07892990112304690
2022-11-12T01:22:22.504-07:00,0.3727531135082250,-0.2739235758781430,0.2065628170967100,0.02509070932865140,-0.07597790658473970,-0.09387123584747310
2022-11-12T01:22:22.514-07:00,0.3947348296642300,-0.3566482663154600,0.2853926420211790,0.05933737754821780,-0.1090816333889960,-0.08087158203125
2022-11-12T01:22:22.524-07:00,0.3550462126731870,-0.4208628535270690,0.3438956439495090,0.07072192430496220,-0.1509841084480290,-0.06456261873245240
2022-11-12T01:22:22.535-07:00,0.2844287753105160,-0.4473322629928590,0.3817298412323000,0.05331702530384060,-0.1750495731830600,-0.05661976337432860
2022-11-12T01:22:22.545-07:00,0.1889805495738980,-0.4798319041728970,0.4021192789077760,0.04114176332950590,-0.1766729205846790,-0.04116201400756840
2022-11-12T01:22:22.555-07:00,0.08315877616405490,-0.5255176424980160,0.4324204623699190,0.04021757841110230,-0.1838559806346890,-0.01220220327377320
2022-11-12T01:22:22.565-07:00,-0.03599034994840620,-0.5505834817886350,0.5032248497009280,0.04282379895448690,-0.1927696168422700,0.009436070919036870
2022-11-12T01:22:22.575-07:00,-0.1476582884788510,-0.5107713341712950,0.5729759931564330,0.04608461260795590,-0.1847168356180190,0.01710027456283570
2022-11-12T01:22:22.584-07:00,-0.2471167743206020,-0.5155745148658750,0.6022124290466310,0.0352160856127739,-0.1889601796865460,0.02501374483108520
2022-11-12T01:22:22.595-07:00,-0.365765392780304,-0.5552260875701900,0.6113475561141970,0.02302812039852140,-0.2093255072832110,0.03854745626449590
2022-11-12T01:22:22.604-07:00,-0.4423331916332250,-0.593894898891449,0.6445236802101140,0.02280262112617490,-0.201486736536026,0.03622716665267940
2022-11-12T01:22:22.615-07:00,-0.4784381985664370,-0.6338550448417660,0.65651935338974,0.0311926007270813,-0.1835452020168300,0.0136680006980896
2022-11-12T01:22:22.625-07:00,-0.4998923242092130,-0.6620624661445620,0.6494504809379580,0.03262719511985780,-0.1633006781339650,-0.008606135845184330
2022-11-12T01:22:22.635-07:00,-0.5551097989082340,-0.6704040169715880,0.6435604095458980,0.02999373525381090,-0.1475045680999760,-0.04350942373275760
2022-11-12T01:22:22.645-07:00,-0.6330986618995670,-0.690877377986908,0.6413297057151790,0.02770374715328220,-0.1346521973609920,-0.05758213996887210
2022-11-12T01:22:22.655-07:00,-0.7210966944694520,-0.7225873470306400,0.6278581023216250,0.02753445506095890,-0.1443901509046560,-0.0394134521484375
2022-11-12T01:22:22.665-07:00,-0.8288841843605040,-0.7206659913063050,0.6029687523841860,0.02185912430286410,-0.168586865067482,-0.02435630559921270
2022-11-12T01:22:22.675-07:00,-0.9132781624794010,-0.7027472257614140,0.5837593674659730,0.004495248198509220,-0.1726354658603670,-0.006528615951538090
2022-11-12T01:22:22.685-07:00,-0.988473653793335,-0.6856557726860050,0.5534268021583560,-0.004283387213945390,-0.1677771061658860,0.01804178953170780
2022-11-12T01:22:22.695-07:00,-1.057765364646910,-0.6532653570175170,0.506339430809021,-0.009332738816738130,-0.1611151844263080,0.03369611501693730
2022-11-12T01:22:22.705-07:00,-1.134534239768980,-0.5945581197738650,0.4654135406017300,-0.006792929023504260,-0.143551379442215,0.02560693025588990
2022-11-12T01:22:22.715-07:00,-1.190874934196470,-0.5413427948951720,0.4433085024356840,0.003312708809971810,-0.1119536012411120,0.01360994577407840
2022-11-12T01:22:22.725-07:00,-1.241094589233400,-0.4973693490028380,0.4121037423610690,0.01720089465379720,-0.1001365259289740,0.004249453544616700
2022-11-12T01:22:22.735-07:00,-1.304710865020750,-0.4600414037704470,0.3709941208362580,0.03057459183037280,-0.1014119908213620,-0.001897335052490230
2022-11-12T01:22:22.745-07:00,-1.378535032272340,-0.4028265774250030,0.3309566676616670,0.04345240816473960,-0.0922393798828125,-0.002883970737457280
2022-11-12T01:22:22.755-07:00,-1.452290773391720,-0.3525676429271700,0.321753054857254,0.05254459008574490,-0.07609141618013380,0.007452547550201420
2022-11-12T01:22:22.765-07:00,-1.516041398048400,-0.3029166162014010,0.3297617137432100,0.05889314040541650,-0.06718218326568600,0.02711498737335210
2022-11-12T01:22:22.775-07:00,-1.560331583023070,-0.2338033318519590,0.3607017993927000,0.05423179268836980,-0.06251995265483860,0.03944098949432370
2022-11-12T01:22:22.785-07:00,-1.572667479515080,-0.1986223459243770,0.3916985690593720,0.04665786027908330,-0.05746002495288850,0.05675452947616580
2022-11-12T01:22:22.795-07:00,-1.570656061172490,-0.182779461145401,0.3974542021751400,0.03982780873775480,-0.06421472132205960,0.07206642627716060
2022-11-12T01:22:22.805-07:00,-1.567193627357480,-0.1458683460950850,0.4057411849498750,0.03469259291887280,-0.04795871675014500,0.07352864742279050
2022-11-12T01:22:22.815-07:00,-1.547184228897100,-0.1020870432257650,0.4258150160312650,0.02561116218566900,-0.02134108543396000,0.06279176473617550
2022-11-12T01:22:22.825-07:00,-1.511788010597230,-0.07035497575998310,0.4561510682106020,0.01855579018592830,0.0129559338092804,0.04344654083251950
2022-11-12T01:22:22.835-07:00,-1.475931167602540,-0.03313011676073070,0.5102558732032780,0.01258242130279540,0.04221907258033750,0.02425652742385860
2022-11-12T01:22:22.845-07:00,-1.429034352302550,0.008909216150641440,0.5818402767181400,0.008778855204582210,0.070945143699646,0.01119142770767210
2022-11-12T01:22:22.855-07:00,-1.378086566925050,0.0525381825864315,0.6481141448020940,0.005063422024250030,0.086844801902771,0.0081748366355896
2022-11-12T01:22:22.865-07:00,-1.322177767753600,0.07675281167030330,0.7123224139213560,0.0004408652894198900,0.0884997546672821,0.01463955640792850
2022-11-12T01:22:22.875-07:00,-1.252254128456120,0.09318558126688000,0.7829073667526250,-0.007962122559547420,0.08429181575775150,0.0316002368927002
2022-11-12T01:22:22.885-07:00,-1.1176438331604,0.09449478983879090,0.8497601747512820,-0.01164877414703370,0.09030386805534360,0.04768979549407960
2022-11-12T01:22:22.895-07:00,-0.9825704097747800,0.1251871883869170,0.9125908017158510,-0.01401597261428830,0.1100434064865110,0.04655712842941280
2022-11-12T01:22:22.906-07:00,-0.8905129432678220,0.1658379435539250,0.9759300947189330,-0.0116069782525301,0.1433142721652990,0.02990031242370610
2022-11-12T01:22:22.917-07:00,-0.8554693460464480,0.1922465264797210,1.046438574790960,-0.0156833827495575,0.1651778519153600,0.0103575587272644
2022-11-12T01:22:22.926-07:00,-0.8988878726959230,0.2171316146850590,1.115282654762270,-0.01914627850055700,0.1727110147476200,-0.008199512958526610
2022-11-12T01:22:22.936-07:00,-0.98121577501297,0.2272119522094730,1.180754899978640,-0.02054128050804140,0.1684328317642210,-0.01835888624191280
2022-11-12T01:22:22.954-07:00,-1.079752922058110,0.2277311086654660,1.2373046875,-0.01682765781879430,0.1577677130699160,-0.02801114320755010
2022-11-12T01:22:22.967-07:00,-1.170522451400760,0.2269531935453420,1.292808651924130,-0.008083239197731020,0.1600841283798220,-0.03404802083969120
2022-11-12T01:22:22.969-07:00,-1.229495644569400,0.235086590051651,1.349941730499270,0.003094598650932310,0.1797061562538150,-0.04137039184570310
2022-11-12T01:22:22.976-07:00,-1.253460288047790,0.2391335219144820,1.412375092506410,0.008224889636039730,0.1963218450546270,-0.04333037137985230
2022-11-12T01:22:22.986-07:00,-1.216988563537600,0.2431541085243230,1.483465433120730,0.007989019155502320,0.2000261545181270,-0.02858579158782960
2022-11-12T01:22:22.996-07:00,-1.101552844047550,0.2475975900888440,1.556129813194280,0.003197140991687780,0.1841953098773960,-0.005720198154449460
2022-11-12T01:22:23.006-07:00,-0.9564154744148250,0.2664670944213870,1.630335927009580,-0.001742765307426450,0.1831778287887570,0.01358842849731450
2022-11-12T01:22:23.016-07:00,-0.8107671737670900,0.2994934916496280,1.697440624237060,-0.001371577382087710,0.2059344053268430,0.003234207630157470
2022-11-12T01:22:23.026-07:00,-0.7433858513832090,0.3505870699882510,1.763070464134220,0.004300743341445920,0.2411496043205260,-0.04889720678329470
2022-11-12T01:22:23.036-07:00,-0.8162161111831670,0.3865419030189510,1.794621706008910,0.01554200053215030,0.274154394865036,-0.1188139915466310
2022-11-12T01:22:23.046-07:00,-1.038046717643740,0.3884592354297640,1.796653747558590,0.03089369833469390,0.2878725528717040,-0.1671953797340390
2022-11-12T01:22:23.056-07:00,-1.356645703315740,0.389859527349472,1.790858149528500,0.04391132295131680,0.2659478187561040,-0.1928445100784300
2022-11-12T01:22:23.066-07:00,-1.674099564552310,0.3759198486804960,1.787089705467220,0.0402064174413681,0.2205590605735780,-0.1806065440177920
2022-11-12T01:22:23.076-07:00,-1.926040172576900,0.3658059537410740,1.810553550720220,0.03108233213424680,0.1572939157485960,-0.1071703433990480
2022-11-12T01:22:23.086-07:00,-2.083347320556640,0.3388333320617680,1.824530720710750,0.01711700856685640,0.08245646953582760,0.0008404850959777830
2022-11-12T01:22:23.096-07:00,-2.071144580841060,0.3040359318256380,1.778621792793270,0.002105087041854860,0.02550661563873290,0.1035338044166570
2022-11-12T01:22:23.106-07:00,-1.901285171508790,0.2970378994941710,1.685502171516420,0.003849133849143980,0.03683534264564510,0.1299653649330140
2022-11-12T01:22:23.116-07:00,-1.655004024505620,0.3628227710723880,1.646746039390560,0.03507174551486970,0.1364514827728270,0.08235889673233030
2022-11-12T01:22:23.126-07:00,-1.369134783744810,0.4421882927417760,1.729138612747190,0.06402172148227690,0.2548139095306400,0.03043842315673830
2022-11-12T01:22:23.137-07:00,-1.218429923057560,0.5117052793502810,1.858635425567630,0.07975383102893830,0.30278480052948,-0.01680654287338260
2022-11-12T01:22:23.147-07:00,-1.308172225952150,0.5433817505836490,1.886314153671270,0.07168819010257720,0.2854627370834350,-0.08820360898971560
2022-11-12T01:22:23.156-07:00,-1.583512187004090,0.5333099961280820,1.820065855979920,0.04693874716758730,0.2379176020622250,-0.1793418526649480
2022-11-12T01:22:23.166-07:00,-1.888352870941160,0.5390790104866030,1.781975984573360,0.04798251390457150,0.2036271095275880,-0.2118692994117740
2022-11-12T01:22:23.177-07:00,-2.178410768508910,0.574701189994812,1.8122638463974,0.06033718585968020,0.1839760541915890,-0.1838027238845830
2022-11-12T01:22:23.186-07:00,-2.334468364715580,0.5771896839141850,1.8855140209198,0.04970398545265200,0.1475594639778140,-0.0959172248840332
2022-11-12T01:22:23.197-07:00,-2.378608226776120,0.5865828990936280,1.993237018585210,0.02569997310638430,0.06538313627243040,0.01899838447570800
2022-11-12T01:22:23.207-07:00,-2.417394876480100,0.6623449325561520,2.073963403701780,0.0008242130279541020,-0.03955870866775510,0.1149798035621640
2022-11-12T01:22:23.217-07:00,-2.508862972259520,0.744179368019104,2.075869083404540,-0.03180521726608280,-0.1377179622650150,0.1830399036407470
2022-11-12T01:22:23.227-07:00,-2.686328411102300,0.7835732698440550,1.956127285957340,-0.04678463935852050,-0.1961166262626650,0.2036470770835880
2022-11-12T01:22:23.237-07:00,-3.076335430145260,0.8435625433921810,1.798045992851260,-0.02030470967292790,-0.1700006723403930,0.1536568403244020
2022-11-12T01:22:23.247-07:00,-3.446134567260740,0.8574105501174930,1.790111184120180,0.02035778760910030,-0.05940520763397220,0.09514224529266360
2022-11-12T01:22:23.257-07:00,-3.568939924240110,0.7963727116584780,1.92306923866272,0.07521897554397580,0.03761100769042970,0.04141771793365480
2022-11-12T01:22:23.267-07:00,-3.534977197647100,0.7356049418449400,2.033721208572390,0.1265160739421840,0.1161243319511410,-0.008023262023925780
2022-11-12T01:22:23.277-07:00,-3.38253116607666,0.7173329591751100,2.118933916091920,0.1549468636512760,0.2066249847412110,-0.04512870311737060
2022-11-12T01:22:23.287-07:00,-3.038713693618770,0.6949923038482670,2.253326177597050,0.155456155538559,0.2700235843658450,-0.0599130392074585
2022-11-12T01:22:23.297-07:00,-2.542793273925780,0.6623480319976810,2.457146406173710,0.1420769989490510,0.263724684715271,-0.04239058494567870
2022-11-12T01:22:23.309-07:00,-2.010808944702150,0.6658034324646000,2.603315830230710,0.1128309965133670,0.2085779905319210,-0.01029670238494870
2022-11-12T01:22:23.317-07:00,-1.723925828933720,0.7414872646331790,2.539739608764650,0.06598961353302000,0.1199163794517520,-0.01698282361030580
2022-11-12T01:22:23.327-07:00,-1.796727895736690,0.8521928787231450,2.307690382003780,0.01434361934661870,0.0455857515335083,-0.04905679821968080
2022-11-12T01:22:23.337-07:00,-2.071977615356450,0.9149465560913090,2.088204145431520,-0.01519650220870970,-0.009099721908569340,-0.07077312469482420
2022-11-12T01:22:23.347-07:00,-2.407067537307740,0.9201176166534420,1.948192715644840,-0.008188903331756590,-0.05768519639968870,-0.069720059633255
2022-11-12T01:22:23.357-07:00,-2.708348274230960,0.9086095690727230,1.863612294197080,0.0295025110244751,-0.05728936195373540,-0.05643492937088010
2022-11-12T01:22:23.367-07:00,-2.899026155471800,0.8845962285995480,1.836416244506840,0.07083594799041750,-0.005218982696533200,-0.02937775850296020
2022-11-12T01:22:23.377-07:00,-2.914807081222530,0.8552250266075130,1.894452691078190,0.09054815769195560,0.05011248588562010,0.01211631298065190
2022-11-12T01:22:23.387-07:00,-2.799266338348390,0.8406549692153930,1.962863206863400,0.08232122659683230,0.06196612119674680,0.05396172404289250
2022-11-12T01:22:23.397-07:00,-2.645094633102420,0.8540235161781310,1.973646283149720,0.05126899480819700,0.02832674980163570,0.07884588837623600
2022-11-12T01:22:23.413-07:00,-2.47337007522583,0.889916718006134,1.955296874046330,0.005052566528320310,-0.02480226755142210,0.08641541004180910
2022-11-12T01:22:23.420-07:00,-2.284600973129270,0.9159600734710690,1.933802247047420,-0.03666305541992190,-0.07244664430618290,0.08418437838554380
2022-11-12T01:22:23.449-07:00,-2.059325695037840,0.9426292181015020,1.869965195655820,-0.06112438440322880,-0.09487873315811160,0.06625360250473020
2022-11-12T01:22:23.451-07:00,-1.906123995780950,0.9743576049804690,1.76628303527832,-0.063071608543396,-0.07007884979248050,0.01399517059326170
2022-11-12T01:22:23.453-07:00,-1.885421633720400,0.9900993704795840,1.682281136512760,-0.05051970481872560,0.02389156818389890,-0.02781140804290770
2022-11-12T01:22:23.458-07:00,-1.984915494918820,0.9599283933639530,1.631915211677550,-0.0313258171081543,0.1284679770469670,-0.07543705403804780
2022-11-12T01:22:23.467-07:00,-2.089242458343510,0.9065786600112920,1.632581114768980,-0.01230591535568240,0.194923996925354,-0.1168500036001210
2022-11-12T01:22:23.478-07:00,-2.084261178970340,0.8587033152580260,1.660057306289670,-0.006835997104644780,0.2053428888320920,-0.1398940086364750
2022-11-12T01:22:23.488-07:00,-1.997312545776370,0.8114275932312010,1.64679741859436,-0.01507693529129030,0.1748602390289310,-0.1408377885818480
2022-11-12T01:22:23.497-07:00,-1.861417531967160,0.7548295855522160,1.573540568351750,-0.03501760959625240,0.1314802169799810,-0.1284629255533220
2022-11-12T01:22:23.507-07:00,-1.6667799949646,0.6939236521720890,1.514234304428100,-0.05877488851547240,0.08249163627624510,-0.1087517663836480
2022-11-12T01:22:23.517-07:00,-1.404244542121890,0.647799551486969,1.48096227645874,-0.07886326313018800,0.04645454883575440,-0.08657663315534590
2022-11-12T01:22:23.528-07:00,-1.094363689422610,0.5952281355857850,1.429918646812440,-0.0964958667755127,0.02384853363037110,-0.07402680814266210
2022-11-12T01:22:23.537-07:00,-0.8065156936645510,0.5501469373703000,1.365553140640260,-0.1108404397964480,0.009578466415405270,-0.06423020362854000
2022-11-12T01:22:23.548-07:00,-0.6149647235870360,0.4997116029262540,1.319831490516660,-0.1223716735839840,0.005312502384185790,-0.05995047837495800
2022-11-12T01:22:23.558-07:00,-0.5007399320602420,0.4332816898822780,1.310442209243770,-0.1342135667800900,-0.008604466915130620,-0.06277811527252200
2022-11-12T01:22:23.568-07:00,-0.4116296172142030,0.3589498400688170,1.343452453613280,-0.1424722671508790,-0.03749102354049680,-0.0681462287902832
2022-11-12T01:22:23.578-07:00,-0.2984247803688050,0.2696335315704350,1.383405208587650,-0.1405109167099000,-0.05252727866172790,-0.06949532032012940
2022-11-12T01:22:23.588-07:00,-0.1490502953529360,0.1633724272251130,1.408199667930600,-0.1339188814163210,-0.0471268892288208,-0.07447469234466550
2022-11-12T01:22:23.598-07:00,0.01943326182663440,0.06425835937261580,1.419077634811400,-0.1243119835853580,-0.02619495987892150,-0.0761227011680603
2022-11-12T01:22:23.608-07:00,0.1692836880683900,-0.03709296137094500,1.422023177146910,-0.1195157170295720,-0.002366960048675540,-0.07863610982894900
2022-11-12T01:22:23.618-07:00,0.229129433631897,-0.1211958527565000,1.41492748260498,-0.1187809705734250,0.0180225670337677,-0.07132583856582640
2022-11-12T01:22:23.628-07:00,0.1915585249662400,-0.2086422443389890,1.417027354240420,-0.125276505947113,0.02550721168518070,-0.06161755323410030
2022-11-12T01:22:23.638-07:00,0.07974543422460560,-0.2941880226135250,1.416622042655950,-0.1318368315696720,0.00663912296295166,-0.04769670590758320
2022-11-12T01:22:23.648-07:00,-0.07547537237405780,-0.3846299946308140,1.424472212791440,-0.1328433752059940,-0.03202849626541140,-0.03390771523118020
2022-11-12T01:22:23.658-07:00,-0.2427637130022050,-0.4750165939331060,1.4196937084198,-0.1349875926971440,-0.05597370862960820,-0.02149200439453130
2022-11-12T01:22:23.668-07:00,-0.3877708613872530,-0.5498014688491820,1.390080332756040,-0.1359224319458010,-0.0561957061290741,-0.01725339516997340
2022-11-12T01:22:23.678-07:00,-0.4925313591957090,-0.5952368378639220,1.338659763336180,-0.1388631463050840,-0.04953169822692870,-0.01678455621004110
2022-11-12T01:22:23.688-07:00,-0.5725349187850950,-0.642329216003418,1.284485340118410,-0.1353679299354550,-0.03395175933837890,-0.02277655154466630
2022-11-12T01:22:23.698-07:00,-0.6022512912750240,-0.694928765296936,1.231516361236570,-0.1235214471817020,-0.01561185717582700,-0.01623386144638060
2022-11-12T01:22:23.708-07:00,-0.5975939035415650,-0.7565897107124330,1.170674800872800,-0.1053105592727660,-0.009661197662353520,-0.01293253898620610
2022-11-12T01:22:23.718-07:00,-0.5941954851150510,-0.8161712884902950,1.069342017173770,-0.09634363651275640,-0.001575469970703130,-0.01137685775756840
2022-11-12T01:22:23.728-07:00,-0.6166406273841860,-0.8536547422409060,0.9481101632118230,-0.1047705411911010,0.0008003413677215580,0.003396272659301760
2022-11-12T01:22:23.738-07:00,-0.6530625224113460,-0.8714909553527830,0.8395541310310360,-0.129375159740448,-0.004665762186050420,0.02300048619508740
2022-11-12T01:22:23.748-07:00,-0.7011494040489200,-0.8610638976097110,0.7192801833152770,-0.1511620879173280,-0.01603031158447270,0.03969965875148770
2022-11-12T01:22:23.758-07:00,-0.7596861720085140,-0.840788722038269,0.591077446937561,-0.1579734086990360,-0.02058258652687070,0.05170048028230670
2022-11-12T01:22:23.768-07:00,-0.8260068297386170,-0.8190387487411500,0.462747722864151,-0.1484516263008120,-0.01578402519226070,0.06154942512512210
2022-11-12T01:22:23.779-07:00,-0.8922993540763860,-0.7970445156097410,0.3409027755260470,-0.1282150745391850,-0.006396681070327760,0.07162946462631230
2022-11-12T01:22:23.789-07:00,-0.9390751719474790,-0.7672825455665590,0.2406925559043880,-0.1066632866859440,-0.005021095275878910,0.08164572715759280
2022-11-12T01:22:23.799-07:00,-0.9787299036979680,-0.7309796810150150,0.1497477442026140,-0.08351016044616700,-0.008782774209976200,0.08653031289577480
2022-11-12T01:22:23.809-07:00,-0.9977296590805050,-0.6845061779022220,0.08273036032915120,-0.06378757953643800,-0.008847475051879880,0.09487442672252660
2022-11-12T01:22:23.819-07:00,-0.9975640177726750,-0.6497611999511720,0.03250633552670480,-0.04641062021255490,-0.004110664129257200,0.09500713646411900
2022-11-12T01:22:23.829-07:00,-0.9688594937324520,-0.6289184093475340,-0.007010980509221550,-0.02994883060455320,0.001734763383865360,0.1000540256500240
2022-11-12T01:22:23.839-07:00,-0.9514866471290590,-0.5991032719612120,-0.06349396705627440,-0.02197200059890750,0.00335124135017395,0.1012705564498900
2022-11-12T01:22:23.849-07:00,-0.9643669724464420,-0.5549877882003780,-0.1213583275675770,-0.03008472919464110,0.00635230541229248,0.09828388690948490
2022-11-12T01:22:23.859-07:00,-0.9683595895767210,-0.4949567019939420,-0.1600524634122850,-0.05231684446334840,0.009041428565979000,0.1006339937448500
2022-11-12T01:22:23.869-07:00,-0.9538193941116330,-0.4284971058368680,-0.1872728914022450,-0.07456737756729130,0.005843997001647950,0.103365421295166
2022-11-12T01:22:23.879-07:00,-0.9439691305160520,-0.3696953058242800,-0.2071347385644910,-0.08658379316329960,-0.000615924596786499,0.1080238968133930
2022-11-12T01:22:23.889-07:00,-0.9127150177955630,-0.3167682588100430,-0.2182531803846360,-0.08232575654983520,-0.001153111457824710,0.1093413233757020
2022-11-12T01:22:23.899-07:00,-0.8470486998558040,-0.264716237783432,-0.2020774185657500,-0.0741727352142334,-0.008600801229476930,0.107939675450325
2022-11-12T01:22:23.909-07:00,-0.7688281536102300,-0.2140429317951200,-0.1953585296869280,-0.06611579656600950,-0.01870077848434450,0.09839032590389250
2022-11-12T01:22:23.919-07:00,-0.7132874131202700,-0.1509944647550580,-0.2041080743074420,-0.0629926323890686,-0.02145081758499150,0.08754159510135650
2022-11-12T01:22:23.929-07:00,-0.6710763573646550,-0.09340670704841610,-0.1767605990171430,-0.06110548973083500,-0.01242911815643310,0.07651996612548830
2022-11-12T01:22:23.939-07:00,-0.6197782754898070,-0.04774094745516780,-0.1207332909107210,-0.05214756727218630,0.002387046813964840,0.06604188680648800
2022-11-12T01:22:23.949-07:00,-0.572472870349884,-0.01359632611274720,-0.07348641008138660,-0.04187065362930300,0.0132061243057251,0.05985914170742040
2022-11-12T01:22:23.959-07:00,-0.5262622237205510,0.01802125573158260,-0.04483612626791,-0.0465349555015564,0.01932829618453980,0.05497981607913970
2022-11-12T01:22:23.969-07:00,-0.4657657146453860,0.04778248071670530,-0.0187121108174324,-0.06114178895950320,0.02733421325683590,0.04516810178756710
2022-11-12T01:22:23.979-07:00,-0.3911370038986210,0.08608805388212200,0.01292890589684250,-0.08301204442977910,0.03533408045768740,0.03856237232685090
2022-11-12T01:22:23.989-07:00,-0.26616370677948,0.1177232787013050,0.04157865792512890,-0.09554409980773930,0.04230087995529180,0.03366090357303620
2022-11-12T01:22:23.999-07:00,-0.1056232899427410,0.1399984806776050,0.07099780440330510,-0.09460932016372680,0.04247984290122990,0.02963091433048250
2022-11-12T01:22:24.009-07:00,0.05890044569969180,0.1403878182172780,0.08988280594348910,-0.08878117799758910,0.04076147079467770,0.0268108993768692
2022-11-12T01:22:24.019-07:00,0.2042957097291950,0.136407196521759,0.1135428622365000,-0.08361834287643430,0.04152941703796390,0.02302193641662600
2022-11-12T01:22:24.029-07:00,0.312468409538269,0.1364459246397020,0.1410019248723980,-0.08403229713439940,0.03763410449028020,0.015761598944664
2022-11-12T01:22:24.040-07:00,0.3731927275657650,0.1521947979927060,0.1421960890293120,-0.0908629298210144,0.02067416906356810,0.007517918944358830
2022-11-12T01:22:24.049-07:00,0.3794509172439580,0.1708648949861530,0.140825092792511,-0.0962977409362793,0.008957326412200930,-0.001173973083496090
2022-11-12T01:22:24.059-07:00,0.3661209940910340,0.176364853978157,0.1614709794521330,-0.09162628650665280,0.02092728018760680,-0.009392976760864260
2022-11-12T01:22:24.070-07:00,0.3271976709365850,0.1678252965211870,0.1867475658655170,-0.07499927282333370,0.0417805016040802,-0.007825598120689390
2022-11-12T01:22:24.079-07:00,0.2300788462162020,0.1586349904537200,0.2048970013856890,-0.05697572231292730,0.05145236849784850,-0.003528177738189700
2022-11-12T01:22:24.089-07:00,0.06398691236972810,0.1529804766178130,0.2097559571266170,-0.05694997310638430,0.03753376007080080,0.006045103073120120
2022-11-12T01:22:24.102-07:00,-0.1411300152540210,0.1510616689920430,0.1937676668167110,-0.0692400336265564,0.001090824604034420,0.01251935958862310
2022-11-12T01:22:24.110-07:00,-0.3352108597755430,0.1625790596008300,0.1586461663246160,-0.08790761232376100,-0.02715715765953060,0.01022089272737500
2022-11-12T01:22:24.119-07:00,-0.4689681231975560,0.1735803186893460,0.1361054331064220,-0.0973779559135437,-0.02647858858108520,-0.001099124550819400
2022-11-12T01:22:24.130-07:00,-0.5108475685119630,0.1781425029039380,0.1310568749904630,-0.0936705470085144,-0.0008757114410400390,-0.009533226490020750
2022-11-12T01:22:24.140-07:00,-0.4906509518623350,0.1816365718841550,0.1370905339717870,-0.08558803796768190,0.03162494301795960,-0.01662790775299070
2022-11-12T01:22:24.150-07:00,-0.4413928985595700,0.1865562796592710,0.1278184801340100,-0.08299410343170170,0.04874530434608460,-0.02583907544612890
2022-11-12T01:22:24.160-07:00,-0.3841527998447420,0.1999967247247700,0.1076940298080440,-0.0870434045791626,0.04789814352989200,-0.03289198875427250
2022-11-12T01:22:24.170-07:00,-0.2843110859394070,0.2106508910655980,0.1002467647194860,-0.09138655662536620,0.04511255025863650,-0.04180176556110380
2022-11-12T01:22:24.180-07:00,-0.1685024499893190,0.2308560311794280,0.1115830391645430,-0.08745145797729490,0.04768076539039610,-0.05322600901126860
2022-11-12T01:22:24.190-07:00,-0.06881687045097350,0.2481665760278700,0.1123801246285440,-0.08035004138946530,0.06527718901634220,-0.06714145839214330
2022-11-12T01:22:24.200-07:00,0.0096473079174757,0.2677386999130250,0.1215179637074470,-0.07299506664276120,0.07689175009727480,-0.07786398380994800
2022-11-12T01:22:24.210-07:00,0.07126753032207490,0.2742959260940550,0.1560059040784840,-0.06273603439331060,0.0901646614074707,-0.08484511822462080
2022-11-12T01:22:24.220-07:00,0.1263632774353030,0.276284784078598,0.1864367872476580,-0.05396008491516110,0.09468957781791690,-0.0850372314453125
2022-11-12T01:22:24.230-07:00,0.1844313740730290,0.2686308324337010,0.2033649086952210,-0.05181586742401120,0.09068107604980470,-0.08253520727157590
2022-11-12T01:22:24.240-07:00,0.2395683825016020,0.2642483413219450,0.2090480923652650,-0.04921698570251470,0.08910232782363890,-0.08896064758300780
2022-11-12T01:22:24.250-07:00,0.2926734089851380,0.2705605626106260,0.20594123005867,-0.0423893928527832,0.09023866057395940,-0.09917103499174120
2022-11-12T01:22:24.260-07:00,0.3214227557182310,0.2618957161903380,0.2002572417259220,-0.03071582317352300,0.09386363625526430,-0.1085036918520930
2022-11-12T01:22:24.270-07:00,0.3446359932422640,0.2381525188684460,0.1877262741327290,-0.02174174785614010,0.09058043360710140,-0.1053404808044430
2022-11-12T01:22:24.280-07:00,0.3700007498264310,0.2160163223743440,0.1672431081533430,-0.01716315746307370,0.08044615387916570,-0.0973808765411377
2022-11-12T01:22:24.290-07:00,0.3993608057498930,0.2008668780326840,0.1420647799968720,-0.01996761560440060,0.07054054737091060,-0.0928792878985405
2022-11-12T01:22:24.300-07:00,0.4177664518356320,0.2022117674350740,0.09092490375041960,-0.03258860111236570,0.05999809503555300,-0.08867347240448000
2022-11-12T01:22:24.310-07:00,0.409930020570755,0.2033343911170960,0.02832250669598580,-0.04265332221984860,0.05014127492904660,-0.08707469701766970
2022-11-12T01:22:24.321-07:00,0.3968645632267000,0.2042177617549900,-0.01300282683223490,-0.04349714517593380,0.04136139154434200,-0.09058152884244920
2022-11-12T01:22:24.331-07:00,0.3801059424877170,0.2006508260965350,-0.04396899789571760,-0.03575813770294190,0.03511875867843630,-0.09118806570768360
2022-11-12T01:22:24.340-07:00,0.3748392760753630,0.1888149380683900,-0.08758518099784850,-0.02398598194122310,0.02643948793411260,-0.09189653396606450
2022-11-12T01:22:24.350-07:00,0.3740095496177670,0.1748159527778630,-0.1270135492086410,-0.00961768627166748,0.0289863646030426,-0.0956561490893364
2022-11-12T01:22:24.361-07:00,0.3801457285881040,0.1625145524740220,-0.139458492398262,0.003921985626220700,0.03703957796096800,-0.09647519141435620
2022-11-12T01:22:24.371-07:00,0.3991513550281530,0.1507689505815510,-0.1425821185112,0.01912713050842290,0.04679358005523680,-0.09680216759443280
2022-11-12T01:22:24.381-07:00,0.4004200994968410,0.1295755058526990,-0.1471318602561950,0.03400194644927980,0.05521705746650700,-0.09565865248441700
2022-11-12T01:22:24.391-07:00,0.408842533826828,0.09767650067806240,-0.1380896419286730,0.04805576801300050,0.05251139402389530,-0.08574521541595460
2022-11-12T01:22:24.401-07:00,0.4080030918121340,0.06551457196474080,-0.120093859732151,0.05746990442276000,0.04406377673149110,-0.06791836023330690
2022-11-12T01:22:24.411-07:00,0.3917293846607210,0.04484917223453520,-0.1209774911403660,0.0530206561088562,0.02844405174255370,-0.05067098140716550
2022-11-12T01:22:24.421-07:00,0.3592462837696080,0.02225891128182410,-0.1312650144100190,0.03975874185562130,0.01620084047317510,-0.04370063543319700
2022-11-12T01:22:24.431-07:00,0.3176444470882420,0.01323698554188010,-0.1297097355127340,0.02549707889556890,0.007268697023391720,-0.03883004188537600
2022-11-12T01:22:24.441-07:00,0.2600754499435430,0.01791056618094440,-0.1329689174890520,0.01622664928436280,0.001170724630355840,-0.04593770951032640
2022-11-12T01:22:24.451-07:00,0.1956948488950730,0.02284913137555120,-0.1558997929096220,0.006335794925689700,-0.001839637756347660,-0.05258691310882570
2022-11-12T01:22:24.461-07:00,0.1378504484891890,0.01505752373486760,-0.1664626896381380,-0.005326986312866210,-0.003265917301177980,-0.04899823665618900
2022-11-12T01:22:24.471-07:00,0.09124253690242770,0.01264063734561210,-0.169324517250061,-0.02325886487960820,-0.004452496767044070,-0.03908859938383100
2022-11-12T01:22:24.481-07:00,0.05919751524925230,0.03293738886713980,-0.1748367249965670,-0.04608124494552610,-0.00614464282989502,-0.02933144569396970
2022-11-12T01:22:24.491-07:00,0.05173178017139440,0.05580258741974830,-0.1862678229808810,-0.05896925926208500,-0.006590187549591060,-0.02215934544801710
2022-11-12T01:22:24.501-07:00,0.06119026243686680,0.06092704087495800,-0.1987681686878200,-0.05602669715881350,-0.008140057325363160,-0.01228535175323490
2022-11-12T01:22:24.511-07:00,0.07811971008777620,0.05674348399043080,-0.1969833076000210,-0.04045528173446660,-0.003736317157745360,0.001172184944152830
2022-11-12T01:22:24.521-07:00,0.1054402813315390,0.05746467038989070,-0.186978355050087,-0.02691227197647100,-0.004396975040435790,0.01134747266769410
2022-11-12T01:22:24.531-07:00,0.1437225192785260,0.06494298577308660,-0.1782823204994200,-0.02093774080276490,-0.01137080788612370,0.01786744594573980
2022-11-12T01:22:24.541-07:00,0.1839876621961590,0.09286782890558240,-0.1767251789569860,-0.01925641298294070,-0.01662954688072210,0.01630677282810210
2022-11-12T01:22:24.551-07:00,0.219507098197937,0.1141514778137210,-0.1639012694358830,-0.0127410888671875,-0.01739394664764400,0.01069528609514240
2022-11-12T01:22:24.561-07:00,0.250704437494278,0.1291810274124150,-0.1404249668121340,0.001561105251312260,-0.01354953646659850,0.008435741066932680
2022-11-12T01:22:24.571-07:00,0.2737289369106290,0.1329133212566380,-0.1269139498472210,0.02198868989944460,-0.003969281911849980,0.01122916489839550
2022-11-12T01:22:24.581-07:00,0.3059068322181700,0.1445526629686360,-0.1095767691731450,0.03594112396240230,0.003261148929595950,0.01703882217407230
2022-11-12T01:22:24.591-07:00,0.3252069354057310,0.1499581933021550,-0.0889604389667511,0.04497629404067990,0.002766340970993040,0.025776207447052
2022-11-12T01:22:24.601-07:00,0.3332233130931850,0.1399044841527940,-0.06936196982860570,0.04358136653900150,-0.002676844596862790,0.03934431076049810
2022-11-12T01:22:24.611-07:00,0.3275003433227540,0.129094272851944,-0.06052267551422120,0.03968650102615360,-0.01350975036621090,0.04967271536588670
2022-11-12T01:22:24.622-07:00,0.3007978796958920,0.131673276424408,-0.07629924267530440,0.02803808450698850,-0.03062430024147030,0.05589281767606740
2022-11-12T01:22:24.632-07:00,0.2647289633750920,0.1400754153728490,-0.1028818488121030,0.001102924346923830,-0.04476442933082580,0.05099523067474370
2022-11-12T01:22:24.642-07:00,0.2402390837669370,0.155767560005188,-0.1296988129615780,-0.02352648973464970,-0.05397084355354310,0.04549474269151690
2022-11-12T01:22:24.652-07:00,0.237146332859993,0.1797799617052080,-0.1539170742034910,-0.04680168628692630,-0.05519425868988040,0.03340446203947070
2022-11-12T01:22:24.662-07:00,0.258299320936203,0.2066217064857480,-0.1655319184064870,-0.0597691535949707,-0.04935818910598760,0.01934134960174560
2022-11-12T01:22:24.672-07:00,0.2991189658641820,0.2301384061574940,-0.1695250570774080,-0.0610048770904541,-0.04345664381980900,0.01035088300704960
2022-11-12T01:22:24.682-07:00,0.3520607352256780,0.2332982420921330,-0.1557653099298480,-0.05185055732727050,-0.03680247068405150,0.009729146957397460
2022-11-12T01:22:24.692-07:00,0.4067957401275640,0.2312299311161040,-0.1310096234083180,-0.04160928726196290,-0.02937626838684080,0.01314443349838260
2022-11-12T01:22:24.702-07:00,0.4354433715343480,0.2306975722312930,-0.08859212696552280,-0.02272874116897580,-0.02518898248672490,0.01342450827360150
2022-11-12T01:22:24.712-07:00,0.4474272727966310,0.2096655666828160,-0.0339491218328476,-0.001961946487426760,-0.01916283369064330,0.01732689142227170
2022-11-12T01:22:24.722-07:00,0.4313814640045170,0.1783901900053020,0.03149326890707020,0.01749598979949950,-0.01987093687057500,0.02383536100387570
2022-11-12T01:22:24.732-07:00,0.3929578065872190,0.1556911021471020,0.08250878006219860,0.02661120891571050,-0.02232035994529720,0.03042244166135790
2022-11-12T01:22:24.742-07:00,0.3508846461772920,0.1348023265600200,0.1396855115890500,0.02869540452957150,-0.02298665046691900,0.03438985347747800
2022-11-12T01:22:24.752-07:00,0.3290904462337490,0.1145806536078450,0.1888874173164370,0.02861970663070680,-0.02295699715614320,0.04084587097167970
2022-11-12T01:22:24.762-07:00,0.3092719912528990,0.08844918757677080,0.2180982977151870,0.03167617321014400,-0.02439898252487180,0.0416828989982605
2022-11-12T01:22:24.772-07:00,0.2910442650318150,0.05800605565309530,0.2229753434658050,0.0351186990737915,-0.01899167895317080,0.04520171880722050
2022-11-12T01:22:24.782-07:00,0.250630795955658,0.04088539257645610,0.2360282987356190,0.0290147066116333,-0.01541179418563840,0.04478275775909420
2022-11-12T01:22:24.792-07:00,0.2020592093467710,0.03897411003708840,0.2496927082538610,0.01685082912445070,-0.009326457977294920,0.03661758080124860
2022-11-12T01:22:24.802-07:00,0.1543944776058200,0.04376460239291190,0.2438920736312870,0.003719866275787350,-0.01080423593521120,0.03035486489534380
2022-11-12T01:22:24.812-07:00,0.1204398646950720,0.04928942769765850,0.227870762348175,-0.001622915267944340,-0.008260786533355710,0.02235668897628780
2022-11-12T01:22:24.822-07:00,0.107455886900425,0.05166070535779000,0.2155523300170900,0.003232121467590330,0.002368390560150150,0.01486319303512570
2022-11-12T01:22:24.832-07:00,0.1254674792289730,0.05177698656916620,0.2119932621717450,0.01038569211959840,0.01943710446357730,0.01144272089004520
2022-11-12T01:22:24.842-07:00,0.1594137400388720,0.05290164053440090,0.2144993096590040,0.01954209804534910,0.03240111470222470,0.008547842502593990
2022-11-12T01:22:24.852-07:00,0.1852494031190870,0.0547812357544899,0.2039228230714800,0.0291215181350708,0.04087311029434200,0.008157618343830110
2022-11-12T01:22:24.862-07:00,0.2017849683761600,0.04954066500067710,0.2038738280534740,0.03709018230438230,0.03923210501670840,0.01170928031206130
2022-11-12T01:22:24.872-07:00,0.2115278691053390,0.03682087361812590,0.1937974840402600,0.04778677225112920,0.03313741087913510,0.01723456382751470
2022-11-12T01:22:24.882-07:00,0.1919160932302480,0.01623410545289520,0.1752730756998060,0.05588340759277340,0.02807888388633730,0.02229917049407960
2022-11-12T01:22:24.892-07:00,0.1692814826965330,0.001847311505116520,0.1592397689819340,0.05153518915176390,0.03035306930541990,0.026762954890728
2022-11-12T01:22:24.902-07:00,0.1362058073282240,-0.005610604770481590,0.145609974861145,0.03252488374710080,0.02930331230163570,0.02795261144638060
2022-11-12T01:22:24.913-07:00,0.09799904376268390,-0.008740617893636230,0.1199874505400660,0.01126599311828610,0.0275992751121521,0.02538245171308520
2022-11-12T01:22:24.923-07:00,0.05683136731386190,-0.01163520757108930,0.0867495983839035,-0.007981479167938230,0.02237433195114140,0.02186024934053420
2022-11-12T01:22:24.933-07:00,0.02365849912166600,-0.009464997798204420,0.05401695519685750,-0.02594077587127690,0.01865735650062560,0.02059876173734670
2022-11-12T01:22:24.943-07:00,0.01887572929263120,-0.008543011732399460,0.0332978293299675,-0.04245704412460330,0.02079889178276060,0.01803082227706910
2022-11-12T01:22:24.953-07:00,0.03317420929670330,0.0003746168222278360,0.0221405141055584,-0.05724656581878660,0.0240425169467926,0.01428175717592240
2022-11-12T01:22:24.963-07:00,0.04541276395320890,0.01554824411869050,0.02023821696639060,-0.07012647390365600,0.03172183036804200,0.0123874619603157
2022-11-12T01:22:24.973-07:00,0.03003240935504440,0.02279477007687090,0.02315358072519300,-0.07268220186233520,0.03900215029716490,0.0098881796002388
2022-11-12T01:22:24.983-07:00,0.0105588436126709,0.03985738009214400,0.04640110954642300,-0.07102137804031370,0.04138505458831790,0.01257777214050290
2022-11-12T01:22:24.993-07:00,-0.04142056778073310,0.04767918214201930,0.05858134850859640,-0.05955135822296140,0.04552221298217770,0.01578879356384280
2022-11-12T01:22:25.003-07:00,-0.2078558951616290,0.02359461784362790,0.05302279815077780,-0.04873019456863400,0.04197275638580320,0.02300041913986210
2022-11-12T01:22:25.013-07:00,-0.5588788986206060,0.01834559440612790,0.02197433263063430,-0.03842025995254520,0.02991238236427310,0.03940826654434200
2022-11-12T01:22:25.023-07:00,-1.105141997337340,0.02442745491862300,-0.001152026001363990,-0.03334182500839230,0.01071366667747500,0.04873239994049070
2022-11-12T01:22:25.033-07:00,-1.682466626167300,0.02989552542567250,-0.03311022371053700,-0.02850621938705440,0.008244305849075320,0.06323045492172240
2022-11-12T01:22:25.043-07:00,-1.982862114906310,0.01957923732697960,-0.01405397616326810,-0.03137022256851200,0.03415891528129580,0.0856705904006958
2022-11-12T01:22:25.053-07:00,-1.899939298629760,0.0275470819324255,0.001650418620556590,-0.04037165641784670,0.09243610501289370,0.08759993314743040
2022-11-12T01:22:25.063-07:00,-1.479495406150820,0.03621114417910580,-0.1093184426426890,-0.04747903347015380,0.209975004196167,0.01611519232392310
2022-11-12T01:22:25.073-07:00,-0.9464427828788760,0.05579936131834980,-0.2243917733430860,-0.0367773175239563,0.3416211009025570,-0.07459479570388790
2022-11-12T01:22:25.083-07:00,-0.4354349374771120,-0.03059971146285530,-0.3362429440021520,-0.0180932879447937,0.4648321270942690,-0.1411351561546330
2022-11-12T01:22:25.093-07:00,-0.1157621741294860,-0.1427637189626690,-0.6094851493835450,-0.01944267749786380,0.5017195343971250,-0.08297669887542730
2022-11-12T01:22:25.103-07:00,-0.3310715556144710,-0.2040984481573110,-1.138263940811160,-0.05948150157928470,0.4520844221115110,-0.02176141738891600
2022-11-12T01:22:25.114-07:00,-1.03912079334259,-0.2918603718280790,-1.81501317024231,-0.1027833819389340,0.462214469909668,0.04358368739485740
2022-11-12T01:22:25.123-07:00,-1.759786486625670,-0.3609411716461180,-2.503114700317380,-0.1237569451332090,0.6407902240753170,0.1481196284294130
2022-11-12T01:22:25.134-07:00,-2.409649133682250,-0.3830496370792390,-3.249122858047490,-0.09438169002532960,0.9529613256454470,0.1072361469268800
2022-11-12T01:22:25.143-07:00,-2.792630910873410,-0.2574195563793180,-4.348905086517330,-0.03678995370864870,1.274889707565310,-0.02039998583495620
2022-11-12T01:22:25.153-07:00,-2.388893365859990,0.1509586572647100,-5.832744598388670,0.08672839403152470,1.619484901428220,-0.2205303907394410
2022-11-12T01:22:25.164-07:00,-1.402436971664430,0.5705005526542660,-7.264218330383300,0.3136816620826720,1.942475080490110,-0.3284432888031010
2022-11-12T01:22:25.174-07:00,0.05911319702863690,0.8683840036392210,-8.380153656005860,0.6801442503929140,2.363165378570560,-0.1223105192184450
2022-11-12T01:22:25.183-07:00,1.573048830032350,1.243389487266540,-9.316880226135250,1.142467737197880,2.90228271484375,0.2889159917831420
2022-11-12T01:22:25.194-07:00,2.462525367736820,1.628897786140440,-9.931771278381350,1.598300218582150,3.227694988250730,0.5750918388366700
2022-11-12T01:22:25.204-07:00,2.032052278518680,1.516162991523740,-9.979826927185060,1.961475729942320,2.885303735733030,0.6505441665649410
2022-11-12T01:22:25.214-07:00,1.209751009941100,1.088305950164800,-9.935589790344240,2.227241992950440,2.021687030792240,0.6366794109344480
2022-11-12T01:22:25.224-07:00,1.12537944316864,0.8670371770858770,-9.477969169616700,2.226629018783570,1.157646417617800,0.5698313117027280
2022-11-12T01:22:25.234-07:00,1.308772206306460,0.7339863181114200,-8.799106597900390,1.804902791976930,0.4935078620910650,0.3178942203521730
2022-11-12T01:22:25.244-07:00,1.204060435295110,0.5176398754119870,-8.298243522644040,1.29236900806427,-0.2892154455184940,0.09591805934906010
2022-11-12T01:22:25.254-07:00,0.9780849814414980,0.2915261089801790,-7.760514259338380,1.012751340866090,-1.123471021652220,-0.02099108695983890
2022-11-12T01:22:25.264-07:00,0.4300783276557920,0.1130690053105350,-7.064291477203370,0.9391970038414000,-1.771039128303530,-0.08233767747879030
2022-11-12T01:22:25.274-07:00,-0.2082281857728960,0.0491923913359642,-6.293139934539800,0.9773738384246830,-2.141226768493650,-0.1698260307312010
2022-11-12T01:22:25.284-07:00,-0.559730052947998,0.05552911385893820,-5.390659332275390,1.040838241577150,-2.27412748336792,-0.2219669818878170
2022-11-12T01:22:25.294-07:00,-0.4906627237796780,0.1663146615028380,-4.5860276222229,1.058035135269170,-2.227882623672490,-0.2787363529205320
2022-11-12T01:22:25.304-07:00,0.009527400135993960,0.218983456492424,-3.727715015411380,0.9902642369270330,-2.023699998855590,-0.3173840641975400
2022-11-12T01:22:25.314-07:00,0.4824934303760530,0.2475695013999940,-2.830934047698980,0.9584578275680540,-1.763375282287600,-0.2882457971572880
2022-11-12T01:22:25.324-07:00,0.5978423953056340,0.2955915927886960,-2.241406917572020,0.9426229596138,-1.528466939926150,-0.2028059959411620
2022-11-12T01:22:25.334-07:00,0.3030907809734340,0.3744823038578030,-1.815399289131170,0.8647621273994450,-1.359284043312070,-0.1054300665855410
2022-11-12T01:22:25.344-07:00,-0.009692433290183540,0.4142470061779020,-1.406894445419310,0.7502391934394840,-1.125399112701420,-0.001001235097646710
2022-11-12T01:22:25.354-07:00,-0.1380594968795780,0.4241947531700130,-1.047647833824160,0.641905665397644,-0.8234174847602840,0.05441117659211160
2022-11-12T01:22:25.364-07:00,0.03339348360896110,0.3835365474224090,-0.7510161399841310,0.5527556538581850,-0.5459952354431150,0.03694700822234150
2022-11-12T01:22:25.374-07:00,0.2882903814315800,0.3215758204460140,-0.5715427994728090,0.4596193432807920,-0.3530856370925900,0.05406564101576810
2022-11-12T01:22:25.384-07:00,0.4665101766586300,0.270386666059494,-0.430950790643692,0.3620186448097230,-0.2308883666992190,0.09049218893051150
2022-11-12T01:22:25.394-07:00,0.4647679626941680,0.2581169605255130,-0.2998628318309780,0.2524158358573910,-0.189889669418335,0.1016277074813840
2022-11-12T01:22:25.404-07:00,0.2665257155895230,0.2766110002994540,-0.2774864137172700,0.1326631307601930,-0.2083304524421690,0.1017767339944840
2022-11-12T01:22:25.414-07:00,0.04770594462752340,0.284942239522934,-0.2440746575593950,0.02164933085441590,-0.2245901823043820,0.126028835773468
2022-11-12T01:22:25.424-07:00,-0.04292275756597520,0.2784510552883150,-0.1095069944858550,-0.05687525868415830,-0.201612114906311,0.1237633749842640
2022-11-12T01:22:25.434-07:00,-0.02281156554818150,0.2656632959842680,-0.1040264740586280,-0.08592662215232850,-0.1424252986907960,0.09305059909820560
2022-11-12T01:22:25.444-07:00,0.02845987863838670,0.2459705322980880,-0.1058422178030010,-0.09870168566703800,-0.09145283699035650,0.06591593474149700
2022-11-12T01:22:25.454-07:00,-0.01587696000933650,0.2316869348287580,-0.0823075994849205,-0.0642707496881485,-0.03542274236679080,0.06545961648225780
2022-11-12T01:22:25.464-07:00,-0.1264990866184240,0.2147801220417020,-0.08008785545825960,-0.009783357381820680,-0.001951456069946290,0.07366400957107540
2022-11-12T01:22:25.475-07:00,-0.1711791902780530,0.1875948309898380,-0.09634298831224440,0.02366992831230160,-0.007485449314117430,0.07702994346618650
2022-11-12T01:22:25.485-07:00,-0.1554387211799620,0.1859121173620220,-0.09944929927587510,0.01537591218948360,-0.01864802837371830,0.06943356990814210
2022-11-12T01:22:25.494-07:00,-0.1127607673406600,0.1840971708297730,-0.1192821264266970,-0.0164073258638382,-0.004605710506439210,0.04374891892075540
2022-11-12T01:22:25.505-07:00,0.01242724806070330,0.1720114797353750,-0.1337223201990130,-0.04208409786224370,0.03395318984985350,0.0251954197883606
2022-11-12T01:22:25.515-07:00,0.2022582441568380,0.1531157642602920,-0.1387495696544650,-0.04043406248092650,0.04875534772872930,0.001673944294452670
2022-11-12T01:22:25.525-07:00,0.3651289045810700,0.1274061352014540,-0.1116324588656430,-0.02794374525547030,0.05736607313156130,-0.02516376227140430
2022-11-12T01:22:25.535-07:00,0.3774299919605260,0.1109851524233820,-0.0922694206237793,-0.007656082510948180,0.05998647212982180,-0.02825324982404710
2022-11-12T01:22:25.545-07:00,0.09319053590297700,0.1149716377258300,-0.106793500483036,0.006995111703872680,0.01518392562866210,0.002464473247528080
2022-11-12T01:22:25.555-07:00,-0.2999032735824590,0.1193613931536670,-0.1161702200770380,0.004352599382400510,-0.0471036434173584,0.04162097722291950
2022-11-12T01:22:25.565-07:00,-0.5771929621696470,0.130794882774353,-0.1194206103682520,0.001762881875038150,-0.09606665372848510,0.04082108289003370
2022-11-12T01:22:25.575-07:00,-0.6129226684570310,0.1352659612894060,-0.1139672547578810,-0.00126020610332489,-0.1166110038757320,0.03239006176590920
2022-11-12T01:22:25.585-07:00,-0.3705214262008670,0.1462016999721530,-0.09982746839523320,-0.002298235893249510,-0.07435119152069090,0.02305465191602710
2022-11-12T01:22:25.595-07:00,0.06262703239917760,0.1532961130142210,-0.07219851016998290,0.007669568061828610,0.0132753849029541,-0.005661793053150180
2022-11-12T01:22:25.605-07:00,0.4572182893753050,0.1729081720113750,-0.02606962621212010,0.0272986888885498,0.06625235080718990,-0.03833805769681930
2022-11-12T01:22:25.615-07:00,0.6376580595970150,0.1884403377771380,-0.008267194032669070,0.03955216705799100,0.04618602991104130,-0.05495034903287890
2022-11-12T01:22:25.625-07:00,0.5824845433235170,0.1923929899930950,0.006138909608125690,0.03501281142234800,-0.01235395669937130,-0.03139305114746090
2022-11-12T01:22:25.635-07:00,0.2717512249946590,0.212039589881897,0.0008749058470129970,0.02574998140335080,-0.0656893253326416,-0.01138794422149660
2022-11-12T01:22:25.645-07:00,-0.1236685365438460,0.206432044506073,0.005164725705981260,0.01165623962879180,-0.1102239489555360,-0.005614928901195530
2022-11-12T01:22:25.655-07:00,-0.4501996040344240,0.17844258248806,-0.002136863302439450,-0.007407337427139280,-0.1482027769088750,0.01047408580780030
2022-11-12T01:22:25.665-07:00,-0.5952138304710390,0.1579719334840780,-0.004330242518335580,-0.0223853588104248,-0.1518492698669430,0.007474839687347410
2022-11-12T01:22:25.675-07:00,-0.4415273070335390,0.1330210417509080,-0.009229660034179690,-0.03605438768863680,-0.09588557481765750,-0.0291508361697197
2022-11-12T01:22:25.687-07:00,-0.1263491064310070,0.09945163130760190,-0.002405576407909390,-0.03629046678543090,-0.03253704309463500,-0.05839484930038450
2022-11-12T01:22:25.695-07:00,0.2261164784431460,0.07863137125968930,0.01553054712712770,-0.01519802212715150,0.0310981273651123,-0.05683040618896480
2022-11-12T01:22:25.705-07:00,0.3861000239849090,0.08093953877687450,0.01916176825761800,0.0003941655158996580,0.05050384998321530,-0.03662371635437010
2022-11-12T01:22:25.715-07:00,0.3362820744514470,0.1134431809186940,0.01540591102093460,0.003942281007766720,0.03141540288925170,-0.01487506181001660
2022-11-12T01:22:25.725-07:00,0.1594370156526570,0.1390151232481000,0.0196232944726944,-0.003375247120857240,-0.005491077899932860,0.007431574165821080
2022-11-12T01:22:25.736-07:00,-0.05256246775388720,0.1622414737939840,0.0134934950619936,-0.01242034137248990,-0.03811186552047730,0.03291995078325270
2022-11-12T01:22:25.746-07:00,-0.2008432894945150,0.1854139119386670,0.01644001714885240,-0.02298390865325930,-0.04477214813232420,0.03529655933380130
2022-11-12T01:22:25.755-07:00,-0.2182740718126300,0.1855069845914840,0.009705414995551110,-0.02742853760719300,-0.03248631954193120,0.02706842869520190
2022-11-12T01:22:25.766-07:00,-0.08957201987504960,0.1646142154932020,0.0173212569206953,-0.01631283760070800,-0.01590156555175780,0.02275233715772630
2022-11-12T01:22:25.776-07:00,0.139269545674324,0.1557372510433200,0.02882424741983410,-0.00199320912361145,0.02081120014190670,0.005218736827373510
2022-11-12T01:22:25.785-07:00,0.3160896003246310,0.1522927135229110,0.03228449448943140,0.009953349828720090,0.06426262855529790,-0.0210605263710022
2022-11-12T01:22:25.796-07:00,0.3321576118469240,0.1329644471406940,0.02785512432456020,0.01127992570400240,0.06686240434646610,-0.01705996692180630
2022-11-12T01:22:25.806-07:00,0.2137494832277300,0.1209589242935180,0.04176854342222210,0.018128901720047,0.02196180820465090,-0.005113363265991210
2022-11-12T01:22:25.816-07:00,0.03871314972639080,0.1279606968164440,0.04796039313077930,0.01441700756549840,-0.02753418684005740,-0.007513634860515590
2022-11-12T01:22:25.826-07:00,-0.08458055555820470,0.1171370893716810,0.04321863502264020,0.005090907216072080,-0.04855483770370480,-0.006998471915721890
2022-11-12T01:22:25.836-07:00,-0.100572906434536,0.09448882937431340,0.07061031460762020,0.0007081776857376100,-0.03083902597427370,-0.00376497209072113
2022-11-12T01:22:25.846-07:00,-0.02737858518958090,0.07797110080718990,0.1004377156496050,0.001976892352104190,-0.01026368141174320,-0.002994589507579800
2022-11-12T01:22:25.856-07:00,0.008616700768470760,0.06776454299688340,0.1076032146811490,0.00572553277015686,-0.008724570274353030,-0.01270807534456250
2022-11-12T01:22:25.866-07:00,0.02540606632828710,0.0586719773709774,0.1169365346431730,0.009701848030090330,-0.002960264682769780,-0.0147540420293808
2022-11-12T01:22:25.876-07:00,0.08102817833423620,0.05016464367508890,0.1501956880092620,0.02434790134429930,0.006326794624328610,-0.02247166633605960
2022-11-12T01:22:25.886-07:00,0.07686220109462740,0.04941416531801220,0.1527134329080580,0.03404694795608520,-0.005368292331695560,-0.007947087287902830
2022-11-12T01:22:25.896-07:00,0.08906809985637670,0.06068509444594380,0.1576291024684910,0.03271064162254330,-0.003431797027587890,-0.005315303802490230
2022-11-12T01:22:25.906-07:00,0.1291526705026630,0.06882983446121220,0.1510194092988970,0.02225826680660250,-0.009368598461151120,-0.01418577879667280
2022-11-12T01:22:25.916-07:00,0.134292334318161,0.06773018836975100,0.1410714238882070,0.01864077150821690,-0.0258520245552063,-0.01246380060911180
2022-11-12T01:22:25.926-07:00,0.1549496799707410,0.07251428812742230,0.1649168282747270,0.01719674468040470,-0.04047352075576780,-0.005287043750286100
2022-11-12T01:22:25.936-07:00,0.1252429485321050,0.07818412780761720,0.2031710147857670,0.01006916165351870,-0.06318372488021850,-0.008063070476055150
2022-11-12T01:22:25.946-07:00,0.03286321461200710,0.08897818624973300,0.2289139330387120,-0.004777967929840090,-0.09663951396942140,-0.008172750473022460
2022-11-12T01:22:25.956-07:00,-0.04173655062913900,0.0890057161450386,0.2600177824497220,-0.01534095406532290,-0.1194083690643310,-0.0112217590212822
2022-11-12T01:22:25.966-07:00,-0.02392133511602880,0.07615569233894350,0.3216172158718110,-0.01651248335838320,-0.1279581785202030,-0.01516985148191450
2022-11-12T01:22:25.976-07:00,0.0307004302740097,0.07972080260515210,0.384479820728302,-0.00624556839466095,-0.1215709447860720,-0.02520274370908740
2022-11-12T01:22:25.986-07:00,0.09831995517015460,0.08027740567922590,0.4461298584938050,0.009246528148651120,-0.1095727682113650,-0.03895437717437740
2022-11-12T01:22:25.996-07:00,0.1980937421321870,0.06104052811861040,0.5239410996437070,0.02247826755046840,-0.1050535440444950,-0.02911920100450520
2022-11-12T01:22:26.006-07:00,0.3490864634513860,0.04363996535539630,0.6097177863121030,0.0332702100276947,-0.1171321272850040,-0.02589380741119390
2022-11-12T01:22:26.016-07:00,0.5475977063179020,0.02741648629307750,0.7028154134750370,0.03628912568092350,-0.1407313346862790,-0.02925550937652590
2022-11-12T01:22:26.026-07:00,0.677342414855957,0.01186895277351140,0.7783831357955930,0.03771083056926730,-0.1646159291267400,-0.01864884793758390
2022-11-12T01:22:26.036-07:00,0.526958703994751,0.02620671316981320,0.8007825016975400,0.042690709233284,-0.1792787909507750,0.001164980232715610
2022-11-12T01:22:26.046-07:00,0.1261198967695240,0.05173524096608160,0.8373623490333560,0.05080090463161470,-0.1921762228012090,0.02047307044267650
2022-11-12T01:22:26.056-07:00,-0.3388578593730930,0.06176703795790670,0.9006374478340150,0.06801024079322820,-0.2283115386962890,0.04627466201782230
2022-11-12T01:22:26.070-07:00,-0.7612807154655460,0.07003162056207660,0.9451466202735900,0.0812276154756546,-0.2797949314117430,0.06842420995235440
2022-11-12T01:22:26.077-07:00,-0.9700484275817870,0.02489514090120790,0.999988317489624,0.07369694113731380,-0.2792766094207760,0.08694112300872800
2022-11-12T01:22:26.087-07:00,-0.7127929329872130,0.004873228259384630,1.123972296714780,0.06592991203069690,-0.1929670572280880,0.06950690597295760
2022-11-12T01:22:26.097-07:00,-0.1715720742940900,0.02540626563131810,1.23383104801178,0.05938497930765150,-0.09354639053344730,-0.01341807097196580
2022-11-12T01:22:26.107-07:00,0.4128327667713170,0.01039749011397360,1.309854745864870,0.0480349138379097,-0.04356253147125240,-0.04863368719816210
2022-11-12T01:22:26.117-07:00,0.9108806848526000,0.003787723835557700,1.402100801467900,0.04038507491350170,-0.06192809343338010,-0.03796868771314620
2022-11-12T01:22:26.127-07:00,1.157885670661930,0.04071058705449100,1.474161982536320,0.03290512412786480,-0.1060863137245180,-0.01324237883090970
2022-11-12T01:22:26.137-07:00,1.126649856567380,0.09548512101173400,1.531822323799130,0.01941725984215740,-0.1290286183357240,0.001937158405780790
2022-11-12T01:22:26.147-07:00,0.8660386800765990,0.153525248169899,1.609592795372010,0.0166429877281189,-0.1679004430770870,0.01854223012924190
2022-11-12T01:22:26.157-07:00,0.3013338148593900,0.2251461446285250,1.656402826309200,0.01936903595924380,-0.235632061958313,0.03456246852874760
2022-11-12T01:22:26.167-07:00,-0.4450197219848630,0.2714755535125730,1.682056069374080,0.01932060718536380,-0.2991344332695010,0.05927611887454990
2022-11-12T01:22:26.177-07:00,-1.064637660980230,0.2852683961391450,1.759498953819280,0.02359294518828390,-0.3489555716514590,0.08395499736070630
2022-11-12T01:22:26.187-07:00,-1.292301177978520,0.2723192870616910,1.907724618911740,0.03081119060516360,-0.3663372397422790,0.09158146381378170
2022-11-12T01:22:26.197-07:00,-1.028469443321230,0.2111401855945590,2.049368858337400,0.03538531064987180,-0.3141568899154660,0.08358979225158690
2022-11-12T01:22:26.207-07:00,-0.3471143543720250,0.1265826970338820,2.167843580245970,0.04873457551002500,-0.1845884323120120,0.04597961902618410
2022-11-12T01:22:26.217-07:00,0.606415331363678,0.09093087911605840,2.303962707519530,0.06379768252372740,-0.05496406555175780,-0.004959344863891600
2022-11-12T01:22:26.227-07:00,1.487088322639470,0.1278662532567980,2.467214822769170,0.06871373951435090,-0.002094268798828130,-0.04569853842258450
2022-11-12T01:22:26.237-07:00,1.977710127830510,0.2212954014539720,2.559512853622440,0.05490143597126010,-0.01789623498916630,-0.05931805074214940
2022-11-12T01:22:26.247-07:00,1.738127946853640,0.380491703748703,2.481529474258420,0.026947021484375,-0.08111095428466800,-0.03247879445552830
2022-11-12T01:22:26.257-07:00,0.7012180685997010,0.5611484050750730,2.323363065719600,0.002266988158226010,-0.1241586804389950,0.01169688999652860
2022-11-12T01:22:26.267-07:00,-0.6970757246017460,0.6823440790176390,2.267426490783690,0.005893811583518980,-0.1532377004623410,0.04592086374759670
2022-11-12T01:22:26.277-07:00,-1.94834578037262,0.7148186564445500,2.365991115570070,0.03580781817436220,-0.2317478060722350,0.08127070963382720
2022-11-12T01:22:26.287-07:00,-2.70370888710022,0.6384583711624150,2.528029203414920,0.05621153116226200,-0.3154236078262330,0.136378601193428
2022-11-12T01:22:26.297-07:00,-2.840752363204960,0.4900329411029820,2.672078609466550,0.06689193844795230,-0.2980282306671140,0.1893408298492430
2022-11-12T01:22:26.307-07:00,-2.209764003753660,0.33802530169487,2.769412279129030,0.07185089588165280,-0.1459585428237920,0.1829100847244260
2022-11-12T01:22:26.317-07:00,-1.037495732307430,0.2566871643066410,2.839832544326780,0.07026466727256780,0.03205502033233640,0.1333127021789550
2022-11-12T01:22:26.327-07:00,0.2442981153726580,0.2585596144199370,2.946581363677980,0.06045815348625180,0.1614193916320800,0.05432760715484620
2022-11-12T01:22:26.337-07:00,1.343230009078980,0.2613236606121060,3.089259386062620,0.04570034146308900,0.205735445022583,-0.02278679609298710
2022-11-12T01:22:26.347-07:00,2.107085227966310,0.2735712826251980,3.223978996276860,0.03087222576141360,0.153630256652832,-0.07070207595825200
2022-11-12T01:22:26.357-07:00,2.398066759109500,0.308960497379303,3.280950546264650,0.01098084449768070,0.05965131521224980,-0.07939272373914720
2022-11-12T01:22:26.367-07:00,2.26671838760376,0.4075160920619970,3.273499727249150,-0.01278811693191530,-0.027030348777771,-0.07100498676300050
2022-11-12T01:22:26.377-07:00,1.746975660324100,0.541129469871521,3.290359735488890,-0.03004336357116700,-0.09571552276611330,-0.06025896966457370
2022-11-12T01:22:26.387-07:00,0.9676598906517030,0.6289138793945310,3.319052457809450,-0.02891141176223760,-0.1331414580345150,-0.04111514985561370
2022-11-12T01:22:26.398-07:00,0.09648130834102630,0.6260376572608950,3.338407039642330,-0.007622659206390380,-0.1525179743766790,-0.008089601993560790
2022-11-12T01:22:26.408-07:00,-0.4767004549503330,0.5735126733779910,3.414651155471800,0.02414500713348390,-0.1554429531097410,0.04185724258422850
2022-11-12T01:22:26.418-07:00,-0.5235267877578740,0.5327913165092470,3.568277359008790,0.06126672029495240,-0.1454464793205260,0.1020029857754710
2022-11-12T01:22:26.431-07:00,-0.3114579319953920,0.4626061022281650,3.682372093200680,0.102556049823761,-0.07562750577926640,0.1267631202936170
2022-11-12T01:22:26.438-07:00,-0.01257523894310000,0.4109853804111480,3.69275689125061,0.1499950289726260,0.08119547367095950,0.1016287803649900
2022-11-12T01:22:26.448-07:00,0.2539565861225130,0.4509128332138060,3.690138339996340,0.1798160672187810,0.1855214834213260,0.05955809354782100
2022-11-12T01:22:26.458-07:00,0.3649992942810060,0.5321503281593320,3.668319702148440,0.1833825707435610,0.1941204071044920,0.02310580015182500
2022-11-12T01:22:26.468-07:00,0.2109633833169940,0.5835298895835880,3.577574968338010,0.1808965802192690,0.1482458710670470,0.004163093864917760
2022-11-12T01:22:26.478-07:00,-0.1136351823806760,0.5968843102455140,3.465955018997190,0.1855818033218380,0.1049138307571410,0.005738623440265660
2022-11-12T01:22:26.488-07:00,-0.5075217485427860,0.5723339915275570,3.392770290374760,0.198339581489563,0.0880197286605835,0.0226675346493721
2022-11-12T01:22:26.498-07:00,-0.8102791309356690,0.5233050584793090,3.349185943603520,0.2154729962348940,0.09033834934234620,0.03148192167282100
2022-11-12T01:22:26.508-07:00,-0.9661701917648320,0.4751428663730620,3.288432598114010,0.2319579124450680,0.1042230725288390,0.02056122198700910
2022-11-12T01:22:26.518-07:00,-0.9710083603858950,0.4164577126502990,3.213585615158080,0.2470523118972780,0.1541112065315250,-0.01169992238283160
2022-11-12T01:22:26.528-07:00,-0.7860480546951290,0.3409272730350490,3.143485069274900,0.2694402933120730,0.2336400151252750,-0.05168342590332030
2022-11-12T01:22:26.538-07:00,-0.5018778443336490,0.2781732976436620,3.024622440338140,0.2880992889404300,0.2996438145637510,-0.09077376127243040
2022-11-12T01:22:26.548-07:00,-0.1894416511058810,0.2372075021266940,2.848037004470830,0.2836877107620240,0.3409571945667270,-0.1122820973396300
2022-11-12T01:22:26.558-07:00,0.1355368942022320,0.2210616320371630,2.636985063552860,0.2536379098892210,0.3664970099926000,-0.1170879602432250
2022-11-12T01:22:26.568-07:00,0.4823630154132840,0.2180911302566530,2.425132751464840,0.2131946086883550,0.3706689774990080,-0.1169196963310240
2022-11-12T01:22:26.578-07:00,0.7722823023796080,0.2584922611713410,2.193274974823000,0.171367883682251,0.3458260893821720,-0.1155176162719730
2022-11-12T01:22:26.588-07:00,0.9769648313522340,0.3021545112133030,1.949975848197940,0.136256992816925,0.327264666557312,-0.1121331378817560
2022-11-12T01:22:26.598-07:00,1.129480481147770,0.3260495662689210,1.745736002922060,0.1137655973434450,0.3137934505939480,-0.09581708163023000
