loggingTime(txt),motionRotationRateX(rad/s),motionRotationRateY(rad/s),motionRotationRateZ(rad/s),motionUserAccelerationX(G),motionUserAccelerationY(G),motionUserAccelerationZ(G)
2022-11-12T02:34:05.652-07:00,-0.06675787270069120,0.08583731949329380,-0.1165220141410830,-0.0245932936668396,-0.08464920520782470,0.06729084253311160
2022-11-12T02:34:05.654-07:00,-0.002724925056099890,0.1313907951116560,-0.1665777266025540,-0.07763062417507170,-0.01572892069816590,0.04798084497451780
2022-11-12T02:34:05.656-07:00,0.008407887071371080,0.1151881217956540,-0.1820243299007420,-0.04480166733264920,0.02630051970481870,0.02355968952178960
2022-11-12T02:34:05.657-07:00,-0.08014987409114840,0.02440782077610490,-0.1679425835609440,0.04483966529369350,0.01790830492973330,0.002733767032623290
2022-11-12T02:34:05.658-07:00,-0.1666810512542730,-0.07709137350320820,-0.1260878145694730,0.1217397451400760,0.01767244935035710,-0.02039110660552980
2022-11-12T02:34:05.659-07:00,-0.1964174956083300,-0.145887091755867,-0.08171076327562330,0.1192206889390950,0.03998443484306340,-0.04168426990509030
2022-11-12T02:34:05.662-07:00,-0.1792430430650710,-0.1470072120428090,-0.06841333955526350,0.0650453120470047,0.05898264050483700,-0.04160201549530030
2022-11-12T02:34:05.669-07:00,-0.1930122375488280,-0.05933181941509250,-0.03038153611123560,-0.009728983044624330,0.04018348455429080,-0.03634440898895260
2022-11-12T02:34:05.680-07:00,-0.1263221651315690,-0.04730338603258130,0.003453126177191730,-0.01422087848186490,0.06382137537002560,-0.01484113931655880
2022-11-12T02:34:05.690-07:00,-0.08233430236577990,-0.002453520894050600,0.004743161145597700,0.007613897323608400,0.05569851398468020,0.009979426860809330
2022-11-12T02:34:05.700-07:00,-0.07813476026058200,0.04165375232696530,0.01891730353236200,-0.03073000907897950,0.03221967816352840,0.03425461053848270
2022-11-12T02:34:05.709-07:00,-0.06223089620471000,0.06271109730005260,0.02175996266305450,-0.02221441268920900,0.00957942008972168,0.05089086294174190
2022-11-12T02:34:05.719-07:00,-0.04411713778972630,0.04744772613048550,0.04579365625977520,0.0006071329116821290,-0.004862338304519650,0.05262988805770870
2022-11-12T02:34:05.729-07:00,-0.05152332782745360,0.01614806056022640,0.0632549449801445,0.01635843515396120,-0.01809242367744450,0.05361723899841310
2022-11-12T02:34:05.739-07:00,-0.07235164195299150,-0.009471549652516840,0.06266079097986220,0.01272483170032500,-0.03352856636047360,0.03730130195617680
2022-11-12T02:34:05.753-07:00,-0.08053980022668840,-0.02920291014015680,0.06987902522087100,0.007471770048141480,-0.03507706522941590,0.02047133445739750
2022-11-12T02:34:05.764-07:00,-0.06531663239002230,-0.03508210554718970,0.07172086834907530,-0.002993404865264890,-0.02371841669082640,0.004554510116577150
2022-11-12T02:34:05.769-07:00,-0.02718150056898590,-0.03497424721717830,0.07181008160114290,-0.01131294667720800,-0.01098507642745970,-0.009005069732666020
2022-11-12T02:34:05.779-07:00,0.0119259525090456,-0.05090154707431790,0.07149422913789750,-0.003638923168182370,0.003709942102432250,-0.02160584926605230
2022-11-12T02:34:05.790-07:00,0.03710854053497310,-0.08080431818962100,0.06802812963724140,0.01261739432811740,0.01116403937339780,-0.02798086404800420
2022-11-12T02:34:05.800-07:00,0.03389064222574230,-0.08529014140367510,0.0669492781162262,0.01201362907886510,0.008168011903762820,-0.02906250953674320
2022-11-12T02:34:05.810-07:00,0.0253145657479763,-0.07988189905881880,0.0666763037443161,0.00112488865852356,0.003538668155670170,-0.02886104583740230
2022-11-12T02:34:05.820-07:00,0.0170489139854908,-0.06876613199710850,0.05995528399944310,-0.005609601736068730,0.002564221620559690,-0.02719444036483770
2022-11-12T02:34:05.830-07:00,-0.01473997626453640,-0.05474798381328580,0.0522499606013298,-0.004969432950019840,0.001820921897888180,-0.02061128616333010
2022-11-12T02:34:05.840-07:00,-0.04275456815958020,-0.04534542933106420,0.05087177455425260,-0.0016898512840271,-0.008186280727386480,-0.01677322387695310
2022-11-12T02:34:05.850-07:00,-0.04546603187918660,-0.03613558411598210,0.04960304126143460,0.00255255401134491,-0.004851549863815310,-0.01714932918548580
2022-11-12T02:34:05.860-07:00,-0.02985884249210360,-0.03073176369071010,0.0443667359650135,0.005655676126480100,0.00701555609703064,-0.02004534006118770
2022-11-12T02:34:05.870-07:00,-0.002214863896369930,-0.01902540773153310,0.03362913802266120,0.007430955767631530,0.01349726319313050,-0.01581573486328130
2022-11-12T02:34:05.880-07:00,0.0104183740913868,-0.006310144439339640,0.02080468647181990,0.001085802912712100,0.005370825529098510,-0.009560823440551760
2022-11-12T02:34:05.890-07:00,0.0137834083288908,-0.004661514423787590,0.01610420644283300,0.005731821060180660,-0.0005865991115570070,-0.003101706504821780
2022-11-12T02:34:05.900-07:00,0.0166617538779974,-0.01146802119910720,0.02199325524270540,0.01473389565944670,-0.008274734020233150,0.007319927215576170
2022-11-12T02:34:05.910-07:00,0.01011949963867660,0.004317533224821090,0.02389714866876600,0.006634414196014400,-0.01456090807914730,0.01738536357879640
2022-11-12T02:34:05.920-07:00,0.005194516852498060,0.008273391984403130,0.01265328377485280,-0.00471217930316925,-0.00561949610710144,0.0193440318107605
2022-11-12T02:34:05.930-07:00,0.0004517585039138790,0.01068828068673610,0.004089355934411290,0.003307253122329710,0.0008490681648254400,0.02294343709945680
2022-11-12T02:34:05.940-07:00,-0.01516821328550580,0.006400058045983320,0.002304238732904200,0.007140710949897770,-0.001510441303253170,0.02018767595291140
2022-11-12T02:34:05.950-07:00,-0.03387165814638140,0.0002468910533934830,0.001257882919162510,0.008613079786300660,-0.002381205558776860,0.01448720693588260
2022-11-12T02:34:05.960-07:00,-0.03954073041677480,-0.007490657269954680,0.001173726748675110,0.008907198905944820,0.003586322069168090,0.01360160112380980
2022-11-12T02:34:05.970-07:00,-0.03556836023926740,-0.01579705625772480,0.0001145876012742520,0.009359732270240780,0.00921669602394104,0.01102197170257570
2022-11-12T02:34:05.980-07:00,-0.03086947835981850,-0.02098675817251210,-0.002140311058610680,-0.000482603907585144,0.0143149197101593,0.001788675785064700
2022-11-12T02:34:05.990-07:00,-0.04340311139822010,-0.009181231260299680,-0.002430861815810200,-0.01375226676464080,0.01849189400672910,-0.005220711231231690
2022-11-12T02:34:06.001-07:00,-0.04023049026727680,0.003841093508526680,-0.007969171740114690,-0.02473503351211550,0.01971721649169920,-0.01323860883712770
2022-11-12T02:34:06.011-07:00,-0.04482301324605940,0.01941276155412200,-0.01947589218616490,-0.02490709722042080,0.01303544640541080,-0.01718753576278690
2022-11-12T02:34:06.021-07:00,-0.06641006469726560,0.02511565573513510,-0.02522219344973560,-0.01903772354125980,0.006758302450180050,-0.01853799819946290
2022-11-12T02:34:06.031-07:00,-0.09507632255554200,0.02574176527559760,-0.02501766383647920,-0.01508554816246030,-0.005162566900253300,-0.01239395141601560
2022-11-12T02:34:06.041-07:00,-0.1136872917413710,0.02200961112976070,-0.0279545970261097,-0.01171581447124480,-0.009034126996994020,0.002021193504333500
2022-11-12T02:34:06.051-07:00,-0.1327989399433140,0.02021890133619310,-0.03571052104234700,-0.01597973704338070,-0.005502074956893920,0.01125019788742070
2022-11-12T02:34:06.061-07:00,-0.1311291456222530,0.02093955315649510,-0.03175120055675510,-0.01634864509105680,-0.002920210361480710,0.01644313335418700
2022-11-12T02:34:06.071-07:00,-0.1278958022594450,0.01391866058111190,-0.03319676220417020,-0.01103135943412780,0.003621995449066160,0.01477652788162230
2022-11-12T02:34:06.081-07:00,-0.1217052713036540,0.008542004972696300,-0.04446939378976820,-0.001978382468223570,0.01191040873527530,0.0119432806968689
2022-11-12T02:34:06.091-07:00,-0.1448035687208180,0.007566389627754690,-0.05598516389727590,0.0003998130559921270,0.002390921115875240,0.007135987281799320
2022-11-12T02:34:06.101-07:00,-0.1944981515407560,0.009841527789831160,-0.06076687201857570,-0.00371842086315155,-0.01180654764175420,0.001098990440368650
2022-11-12T02:34:06.111-07:00,-0.2269168794155120,0.002030010567978020,-0.06941176205873490,0.002785414457321170,-0.01307854056358340,-0.007595539093017580
2022-11-12T02:34:06.121-07:00,-0.2555256187915800,-0.019961042329669,-0.06081347540020940,0.02018101513385770,-0.005186587572097780,-0.00847315788269043
2022-11-12T02:34:06.131-07:00,-0.2828676700592040,-0.03046038746833800,-0.06076048314571380,0.02344043552875520,0.0007300078868865970,-0.001401007175445560
2022-11-12T02:34:06.141-07:00,-0.2910060286521910,-0.03466871753335000,-0.0650194063782692,0.007942885160446170,0.0003562271595001220,0.006313323974609380
2022-11-12T02:34:06.151-07:00,-0.292874813079834,-0.02470952458679680,-0.07210315018892290,-0.007807403802871700,0.004033923149108890,0.01421117782592770
2022-11-12T02:34:06.161-07:00,-0.3080335259437560,-0.02190734818577770,-0.07673358917236330,-0.007659941911697390,0.006267726421356200,0.02037310600280760
2022-11-12T02:34:06.171-07:00,-0.3220078647136690,-0.03992259874939920,-0.0822007954120636,0.01004569232463840,0.001599594950675960,0.01522547006607060
2022-11-12T02:34:06.181-07:00,-0.3498749136924740,-0.07234258949756620,-0.09026964008808140,0.02880659699440000,-0.004365429282188420,0.008503139019012450
2022-11-12T02:34:06.191-07:00,-0.3811265826225280,-0.1030344590544700,-0.08169319480657580,0.03633679449558260,-0.01583229005336760,0.009158074855804440
2022-11-12T02:34:06.201-07:00,-0.4198151230812070,-0.1259967684745790,-0.070599265396595,0.02866576611995700,-0.02323426306247710,0.01794898509979250
2022-11-12T02:34:06.211-07:00,-0.45105841755867,-0.1154281422495840,-0.06827431917190550,0.0006063729524612430,-0.02290953695774080,0.01972270011901860
2022-11-12T02:34:06.221-07:00,-0.447400838136673,-0.1015160605311390,-0.07701215893030170,-0.008910521864891050,-0.007128536701202390,0.01894187927246090
2022-11-12T02:34:06.231-07:00,-0.4456335306167600,-0.1135652661323550,-0.09695950150489810,0.0004352331161499020,0.005484133958816530,0.01116335391998290
2022-11-12T02:34:06.242-07:00,-0.4607565701007840,-0.07420560717582700,-0.1288830786943440,-0.008731454610824590,-0.005202651023864750,0.01133406162261960
2022-11-12T02:34:06.258-07:00,-0.5597703456878660,0.0268271379172802,-0.177436500787735,-0.08624409139156340,-0.04161602258682250,-0.003199279308319090
2022-11-12T02:34:06.272-07:00,-0.5745370388031010,0.03086688369512560,-0.1609968096017840,-0.03596600890159610,-0.01903964579105380,-0.00179368257522583
2022-11-12T02:34:06.273-07:00,-0.6118021011352540,0.02424010820686820,-0.1325342655181890,0.01097127795219420,-0.0203792005777359,-0.01094156503677370
2022-11-12T02:34:06.282-07:00,-0.5999501943588260,0.0004865755327045920,-0.1138934716582300,0.0202929675579071,-0.02824953198432920,-0.005388855934143070
2022-11-12T02:34:06.292-07:00,-0.5421655178070070,0.002943075494840740,-0.09162012487649920,0.01742425560951230,-0.01821693778038030,0.003753185272216800
2022-11-12T02:34:06.302-07:00,-0.5009051561355590,0.03636468201875690,-0.08966962248086930,-0.01500552892684940,0.004472360014915470,-0.004500806331634520
2022-11-12T02:34:06.312-07:00,-0.4701352119445800,0.05373937636613850,-0.09156286716461180,-0.02344419062137600,0.004889413714408880,-0.01065617799758910
2022-11-12T02:34:06.322-07:00,-0.4412151575088500,0.03932288661599160,-0.09687160700559620,0.007195472717285160,0.001582220196723940,-0.009943604469299320
2022-11-12T02:34:06.332-07:00,-0.4284616112709050,0.007946621626615520,-0.07118116319179540,0.03078842163085940,-0.006715789437294010,-0.007086515426635740
2022-11-12T02:34:06.342-07:00,-0.4322526156902310,-0.003392318496480580,-0.05745203420519830,0.02942292392253880,-0.01092149317264560,-0.007855474948883060
2022-11-12T02:34:06.352-07:00,-0.4567873477935790,0.003545615589246150,-0.05959454923868180,0.01455588638782500,-0.02091787755489350,-0.009009420871734620
2022-11-12T02:34:06.362-07:00,-0.4948423206806180,0.008647166192531590,-0.05823260545730590,0.003503590822219850,-0.03382188081741330,-0.009739935398101810
2022-11-12T02:34:06.372-07:00,-0.5210792422294620,-0.0004654047079384330,-0.04946255311369900,0.008141770958900450,-0.04074235260486600,-0.002765536308288570
2022-11-12T02:34:06.382-07:00,-0.4844996333122250,-0.02715374156832700,-0.05452628806233410,0.0100330114364624,-0.0403265506029129,0.01108253002166750
2022-11-12T02:34:06.392-07:00,-0.4204701781272890,-0.03501126542687420,-0.05406130105257030,0.007843911647796630,-0.01641003787517550,0.02596014738082890
2022-11-12T02:34:06.402-07:00,-0.3552317917346950,-0.04037966206669810,-0.07273564487695690,-0.009563803672790530,0.0004480332136154180,0.02849292755126950
2022-11-12T02:34:06.412-07:00,-0.3212097883224490,-0.05502132326364520,-0.1133749559521680,-0.0131203830242157,-0.002131685614585880,0.03037780523300170
2022-11-12T02:34:06.422-07:00,-0.2681111395359040,-0.06804444640874860,-0.1424087435007100,-0.001886710524559020,-0.00646345317363739,0.0256803035736084
2022-11-12T02:34:06.432-07:00,-0.1668189913034440,-0.09109293669462200,-0.1407972574234010,0.008788779377937320,-0.001692324876785280,0.01842880249023440
2022-11-12T02:34:06.442-07:00,-0.081224724650383,-0.09835777431726460,-0.1074584797024730,-0.0001311153173446660,0.01493103802204130,0.01577109098434450
2022-11-12T02:34:06.452-07:00,-0.0429786741733551,-0.08772657066583630,-0.1412031352519990,-0.01500125229358670,0.00241340696811676,0.01323062181472780
2022-11-12T02:34:06.462-07:00,-0.05215832218527790,-0.1019955202937130,-0.1548489034175870,-0.008323490619659420,-0.01766166090965270,0.005482494831085210
2022-11-12T02:34:06.473-07:00,-0.07634884119033810,-0.1115794777870180,-0.1445920020341870,-0.003712281584739690,-0.02995637059211730,-0.000252068042755127
2022-11-12T02:34:06.482-07:00,-0.116033673286438,-0.1056768447160720,-0.1609408855438230,-0.01301538944244390,-0.03705883026123050,-0.006251215934753420
2022-11-12T02:34:06.492-07:00,-0.1483417749404910,-0.09923362731933590,-0.1624825745821000,-0.01686525344848630,-0.03909024596214290,-0.004743516445159910
2022-11-12T02:34:06.502-07:00,-0.1761960536241530,-0.09934388101100920,-0.1625800579786300,-0.009718671441078190,-0.03726851940155030,-0.007115483283996580
2022-11-12T02:34:06.512-07:00,-0.1967993527650830,-0.09852012991905210,-0.1674003750085830,-0.005431294441223150,-0.03158149123191830,-0.01063215732574460
2022-11-12T02:34:06.522-07:00,-0.2026399374008180,-0.08970453590154650,-0.1745219379663470,-0.01032927632331850,-0.02505841851234440,-0.01002699136734010
2022-11-12T02:34:06.533-07:00,-0.2005144655704500,-0.07645184546709060,-0.179602175951004,-0.01602932810783390,-0.01931678503751760,-0.007796823978424070
2022-11-12T02:34:06.543-07:00,-0.1878229081630710,-0.06584740430116650,-0.193652480840683,-0.01391339302062990,-0.01732831448316570,-0.008365511894226070
2022-11-12T02:34:06.553-07:00,-0.1712350845336910,-0.06043966114521030,-0.2168547362089160,-0.008848324418067930,-0.01920893788337710,-0.01123201847076420
2022-11-12T02:34:06.563-07:00,-0.1546041667461400,-0.04991884157061580,-0.238817036151886,-0.006957262754440310,-0.01732856035232540,-0.01088994741439820
2022-11-12T02:34:06.573-07:00,-0.1380326449871060,-0.03883476555347440,-0.2532681524753570,-0.007197856903076170,-0.01967596262693410,-0.01295113563537600
2022-11-12T02:34:06.583-07:00,-0.1318471878767010,-0.03536253795027730,-0.2737191021442410,-0.002688944339752200,-0.02347113192081450,-0.01123583316802980
2022-11-12T02:34:06.593-07:00,-0.147021546959877,-0.03096545673906800,-0.2882708609104160,0.003257885575294500,-0.02779079228639600,-0.008510231971740720
2022-11-12T02:34:06.603-07:00,-0.1699324548244480,-0.0288743432611227,-0.302069753408432,0.005593538284301760,-0.03371066600084310,-0.01048856973648070
2022-11-12T02:34:06.613-07:00,-0.195389911532402,-0.02807855606079100,-0.317188560962677,0.006940320134162900,-0.0351385697722435,-0.01472377777099610
2022-11-12T02:34:06.623-07:00,-0.2228186130523680,-0.02283985167741780,-0.3302936851978300,0.000619843602180481,-0.03699949383735660,-0.0173262357711792
2022-11-12T02:34:06.633-07:00,-0.2462830245494840,-0.01103395968675610,-0.3421748578548430,-0.01060199737548830,-0.03981214761734010,-0.01789987087249760
2022-11-12T02:34:06.643-07:00,-0.2705516219139100,-0.0005938354879617690,-0.3571764230728150,-0.01725654304027560,-0.03485972434282300,-0.01412570476531980
2022-11-12T02:34:06.653-07:00,-0.2875112593173980,0.01309491135180000,-0.3712325990200040,-0.02385212481021880,-0.02601800113916400,-0.007427990436553960
2022-11-12T02:34:06.663-07:00,-0.2883605360984800,0.03151333704590800,-0.3854341506958010,-0.0249737948179245,-0.02095657587051390,-0.0007711052894592290
2022-11-12T02:34:06.673-07:00,-0.2535800635814670,0.0274425595998764,-0.3980264067649840,-0.01787921786308290,-0.01855341345071790,0.003134250640869140
2022-11-12T02:34:06.683-07:00,-0.1966368705034260,0.0264582559466362,-0.403786838054657,-0.002630561590194700,-0.007378049194812780,0.006457984447479250
2022-11-12T02:34:06.693-07:00,-0.1332610249519350,0.0301410723477602,-0.4096153974533080,0.002510607242584230,0.006063602864742280,0.00320124626159668
2022-11-12T02:34:06.703-07:00,-0.06914409995079040,0.02708403207361700,-0.4209932386875150,0.002150207757949830,0.01555483788251880,0.002182841300964360
2022-11-12T02:34:06.713-07:00,-0.02407072857022290,0.03171722963452340,-0.4314975440502170,0.00158323347568512,0.01496418565511700,0.001294791698455810
2022-11-12T02:34:06.723-07:00,-0.01992711611092090,0.02478235960006710,-0.4307484030723570,0.001176655292510990,0.003620125353336330,-0.002461552619934080
2022-11-12T02:34:06.733-07:00,-0.04026271402835850,0.02355833910405640,-0.4348115921020510,0.002577856183052060,-0.005572162568569180,-0.002526581287384030
2022-11-12T02:34:06.743-07:00,-0.07760209590196610,0.01924934424459930,-0.4406553506851200,0.006937220692634580,-0.01491979509592060,-0.0018157958984375
2022-11-12T02:34:06.754-07:00,-0.09125932306051250,0.005352437030524020,-0.4376611709594730,0.01142995059490200,-0.01472423225641250,-0.006237208843231200
2022-11-12T02:34:06.763-07:00,-0.0859106257557869,0.01158742979168890,-0.4348467290401460,0.008450567722320560,-0.001995310187339780,-0.007198810577392580
2022-11-12T02:34:06.773-07:00,-0.08634199202060700,0.02516362629830840,-0.4395064413547520,-0.003319874405860900,0.009921088814735410,-0.009928762912750240
2022-11-12T02:34:06.783-07:00,-0.1034967452287670,0.04518260434269910,-0.4449544847011570,-0.01398022472858430,0.002746380865573880,-0.006699919700622560
2022-11-12T02:34:06.793-07:00,-0.1266555339097980,0.05016345158219340,-0.448925793170929,-0.009881913661956790,-0.006411463022232060,0.001318454742431640
2022-11-12T02:34:06.803-07:00,-0.1509848386049270,0.04565764963626860,-0.4523642063140870,0.002811446785926820,-0.01372347772121430,0.008326172828674320
2022-11-12T02:34:06.813-07:00,-0.1764524132013320,0.04153697192668920,-0.4564241766929630,0.009675741195678710,-0.01510834693908690,0.0108494758605957
2022-11-12T02:34:06.823-07:00,-0.2077517509460450,0.04308107495307920,-0.4588476717472080,0.006572917103767400,-0.01504098623991010,0.008711755275726320
2022-11-12T02:34:06.833-07:00,-0.2460749000310900,0.04913044348359110,-0.4584199786186220,0.001929223537445070,-0.01183744519948960,0.007271528244018560
2022-11-12T02:34:06.843-07:00,-0.2695120573043820,0.05012034252285960,-0.4587534070014950,0.002532914280891420,-0.00824158638715744,0.005085587501525880
2022-11-12T02:34:06.854-07:00,-0.2830100059509280,0.04552186280488970,-0.4541983008384710,0.005066245794296270,-0.008429966866970060,0.0007279515266418460
2022-11-12T02:34:06.864-07:00,-0.2878665626049040,0.03818725049495700,-0.457328587770462,0.005034714937210080,-0.004045777022838590,0.003588438034057620
2022-11-12T02:34:06.873-07:00,-0.287216991186142,0.03864344954490660,-0.4634424149990080,0.005811035633087160,0.004495091736316680,0.0114472508430481
2022-11-12T02:34:06.883-07:00,-0.2758450210094450,0.03092294558882710,-0.4626091122627260,0.008934974670410160,-5.19230961799622E-05,0.01460576057434080
2022-11-12T02:34:06.893-07:00,-0.2448844313621520,0.01500200107693670,-0.4593776166439060,0.01204824447631840,-0.0009458288550376890,0.01277363300323490
2022-11-12T02:34:06.903-07:00,-0.2065953612327580,0.02284820750355720,-0.463605672121048,0.008440211415290830,0.01584328711032870,0.01643747091293340
2022-11-12T02:34:06.914-07:00,-0.1648344993591310,0.03085223957896230,-0.4669519066810610,0.003641963005065920,0.02625890821218490,0.01856642961502080
2022-11-12T02:34:06.924-07:00,-0.1292256414890290,0.01992662064731120,-0.4649244546890260,0.005310237407684330,0.02375140786170960,0.02059590816497800
2022-11-12T02:34:06.934-07:00,-0.1118607670068740,0.002366800326853990,-0.4558087289333340,0.0131097286939621,0.01849529147148130,0.01550006866455080
2022-11-12T02:34:06.944-07:00,-0.1113957837224010,-0.006068229675292970,-0.4511412680149080,0.01463167369365690,0.01557949185371400,0.007839620113372800
2022-11-12T02:34:06.954-07:00,-0.1223376095294950,-0.01031200960278510,-0.4365117251873020,0.01240724325180050,0.01019760966300960,0.00284343957901001
2022-11-12T02:34:06.964-07:00,-0.1069216355681420,-0.02412662468850610,-0.4170003533363340,0.009612709283828740,0.009597718715667730,-0.00412285327911377
2022-11-12T02:34:06.974-07:00,-0.08535945415496830,-0.03015965037047860,-0.4044424593448640,0.01125951111316680,0.02389067411422730,-0.01432937383651730
2022-11-12T02:34:06.984-07:00,-0.04019863158464430,-0.02098053321242330,-0.3907389044761660,0.00233691930770874,0.04653734713792800,-0.02101689577102660
2022-11-12T02:34:06.994-07:00,-0.002713708207011220,-0.01350730471313,-0.3736520707607270,-0.005816861987113950,0.04559881240129470,-0.02223634719848630
2022-11-12T02:34:07.004-07:00,0.01680273376405240,-0.01091125421226030,-0.3612289726734160,-0.0064983069896698,0.04026928544044500,-0.01861655712127690
2022-11-12T02:34:07.014-07:00,0.006086373701691630,-0.0161413699388504,-0.3471032977104190,-0.004205033183097840,0.02453327178955080,-0.01259154081344600
2022-11-12T02:34:07.024-07:00,-0.02509364858269690,-0.0116435568779707,-0.3304739892482760,-0.007529661059379580,0.01308336853981020,-0.007299244403839110
2022-11-12T02:34:07.034-07:00,-0.05891113728284840,-0.01126711908727880,-0.3214865922927860,-0.01022693514823910,0.008832111954689030,-0.004872739315032960
2022-11-12T02:34:07.044-07:00,-0.09979704767465590,-0.005002832040190700,-0.3143424093723300,-0.007953420281410220,0.006548769772052770,-0.004204511642456060
2022-11-12T02:34:07.054-07:00,-0.1341172009706500,-0.008130447939038280,-0.300864964723587,-0.003147318959236150,0.0003097802400588990,-0.009944498538970950
2022-11-12T02:34:07.064-07:00,-0.1553178280591970,-0.01184875424951320,-0.284991979598999,0.002104282379150390,0.0019398033618927,-0.01789426803588870
2022-11-12T02:34:07.074-07:00,-0.1572333425283430,-0.003736065933480860,-0.279094934463501,-0.0004305243492126470,0.01894569396972660,-0.02253735065460210
2022-11-12T02:34:07.084-07:00,-0.1180550456047060,0.002156178001314400,-0.2739758193492890,-0.005868911743164060,0.02780111134052280,-0.02331000566482540
2022-11-12T02:34:07.094-07:00,-0.06903177499771120,0.008197225630283360,-0.2666201591491700,-0.006926804780960080,0.03512115776538850,-0.01600593328475950
2022-11-12T02:34:07.104-07:00,-0.01357304584234950,0.01168570015579460,-0.2619625627994540,-0.005132496356964110,0.04087176918983460,-0.01177555322647100
2022-11-12T02:34:07.114-07:00,0.03379150480031970,0.01915190741419790,-0.2563875019550320,-0.01042357087135320,0.03732093423604970,-0.006934821605682370
2022-11-12T02:34:07.124-07:00,0.07778000086545940,0.02554109692573550,-0.2528683841228490,-0.01362739503383640,0.03764789551496510,-0.006912887096405030
2022-11-12T02:34:07.134-07:00,0.105722963809967,0.03369702771306040,-0.2440232485532760,-0.01245860755443570,0.03835379332304000,-0.005232393741607670
2022-11-12T02:34:07.145-07:00,0.09875932335853580,0.03114678338170050,-0.2354132533073430,-0.008655652403831480,0.02935883402824400,-0.004628360271453860
2022-11-12T02:34:07.155-07:00,0.06538382172584530,0.03248898312449460,-0.2304187566041950,-0.005786612629890440,0.01832184940576550,-0.007090747356414800
2022-11-12T02:34:07.165-07:00,0.01467243768274780,0.031190425157547,-0.2205733060836790,-0.002047151327133180,0.004252016544342040,-0.006693780422210690
2022-11-12T02:34:07.175-07:00,-0.04969882965087890,0.02922527864575390,-0.1955606341362,-0.0007858872413635250,-0.005428127944469450,-0.0102042555809021
2022-11-12T02:34:07.185-07:00,-0.1111440733075140,0.0368025042116642,-0.1875647604465490,-0.001881107687950130,-0.002299875020980840,-0.01146781444549560
2022-11-12T02:34:07.195-07:00,-0.1365239024162290,0.03722371906042100,-0.1774540692567830,-0.004359066486358640,-0.002775460481643680,-0.007021903991699220
2022-11-12T02:34:07.205-07:00,-0.1098973527550700,0.04103656858205800,-0.170358344912529,0.001440480351448060,0.01472873240709310,-0.001413941383361820
2022-11-12T02:34:07.215-07:00,-0.06290946900844570,0.04270676895976070,-0.1678800135850910,0.006976664066314700,0.03855356574058530,0.003522098064422610
2022-11-12T02:34:07.225-07:00,-0.002347588539123540,0.04488230496644970,-0.1657859683036800,0.004914760589599610,0.0459834411740303,0.00688779354095459
2022-11-12T02:34:07.235-07:00,0.03630209714174270,0.04950471967458730,-0.1571605205535890,0.002658620476722720,0.04454068094491960,0.005164563655853270
2022-11-12T02:34:07.245-07:00,0.04607723653316500,0.05079981312155720,-0.1472461074590680,0.002312973141670230,0.03470218181610110,-0.00114363431930542
2022-11-12T02:34:07.272-07:00,0.02290999703109260,0.05288253724575040,-0.145700141787529,0.003015369176864620,0.01897847652435300,-0.005474627017974850
2022-11-12T02:34:07.274-07:00,-0.006558412685990330,0.05478030815720560,-0.1450873464345930,0.003615513443946840,0.002602547407150270,-0.01429706811904910
2022-11-12T02:34:07.275-07:00,-0.03634686768054960,0.06400010734796520,-0.1445107758045200,0.0003685802221298220,-0.001451291143894200,-0.01930272579193120
2022-11-12T02:34:07.285-07:00,-0.07004117965698240,0.06780629605054860,-0.1445861458778380,-0.001944795250892640,0.0002913698554039000,-0.01395970582962040
2022-11-12T02:34:07.295-07:00,-0.08595170080661770,0.07706237584352490,-0.142678514122963,-0.00510638952255249,-0.00281166285276413,-0.01005589962005620
2022-11-12T02:34:07.305-07:00,-0.07896091043949130,0.07406312972307210,-0.1370960026979450,-0.004438519477844240,0.002475224435329440,-0.003701210021972660
2022-11-12T02:34:07.315-07:00,-0.05948740988969800,0.08089367300271990,-0.132905513048172,-0.006983637809753420,0.01880881190299990,-0.0009313821792602540
2022-11-12T02:34:07.325-07:00,-0.01993360742926600,0.08748233318328860,-0.1381088048219680,-0.01303325593471530,0.03083993494510650,0.0006316304206848150
2022-11-12T02:34:07.335-07:00,0.03937602043151860,0.08759261667728420,-0.1381588578224180,-0.009846046566963200,0.03464721888303760,-0.002060353755950930
2022-11-12T02:34:07.345-07:00,0.1188157275319100,0.08262714743614200,-0.1338839530944820,-0.001860782504081730,0.03745743632316590,-0.00163114070892334
2022-11-12T02:34:07.355-07:00,0.1596207767724990,0.0784088671207428,-0.1272569447755810,0.00220787525177002,0.03473842144012450,-0.002749204635620120
2022-11-12T02:34:07.365-07:00,0.1637500077486040,0.08286380767822270,-0.1141004040837290,-0.004024863243103030,0.0241205170750618,-0.006576836109161380
2022-11-12T02:34:07.375-07:00,0.1282687038183210,0.08159561455249790,-0.1056288853287700,-0.006541639566421510,0.004127174615859990,-0.007402896881103520
2022-11-12T02:34:07.385-07:00,0.05756950750947000,0.07703840732574460,-0.09584522992372510,-0.001485034823417660,-0.008206874132156370,-0.002018570899963380
2022-11-12T02:34:07.395-07:00,-0.02684511058032510,0.06354164332151410,-0.07991819828748700,0.004872262477874760,-0.02367328107357030,0.0009107589721679690
2022-11-12T02:34:07.405-07:00,-0.1161978989839550,0.05406558141112330,-0.06808044761419300,0.008430227637290960,-0.02825063467025760,0.00117415189743042
2022-11-12T02:34:07.415-07:00,-0.1668843030929570,0.04257437586784360,-0.05584082007408140,0.003944233059883120,-0.02492780983448030,0.00302577018737793
2022-11-12T02:34:07.425-07:00,-0.1663471460342410,0.03913357108831410,-0.04572959989309310,0.004068657755851750,-0.004249289631843570,0.001242876052856450
2022-11-12T02:34:07.436-07:00,-0.1380295902490620,0.04147938266396520,-0.04004428535699840,0.001168385148048400,0.01511873304843900,-0.001793563365936280
2022-11-12T02:34:07.446-07:00,-0.08673417568206790,0.04840653017163280,-0.03918062150478360,-0.008000507950782780,0.02219918370246890,-0.005486011505126950
2022-11-12T02:34:07.456-07:00,-0.008382512256503110,0.04595735296607020,-0.03749244287610050,-0.009418979287147520,0.02099977433681490,-0.007336318492889400
2022-11-12T02:34:07.466-07:00,0.08101794123649600,0.05336493626236920,-0.04603533074259760,-0.005670875310897830,0.03486302495002750,-0.005817949771881100
2022-11-12T02:34:07.476-07:00,0.1430015116930010,0.06119426339864730,-0.05479792878031730,-0.002705484628677370,0.03526844829320910,-0.003781437873840330
2022-11-12T02:34:07.486-07:00,0.1679987460374830,0.06423106789588930,-0.05876151099801060,-0.002766549587249760,0.02394964545965200,0.001869678497314450
2022-11-12T02:34:07.496-07:00,0.1519390493631360,0.06639572232961660,-0.06166196241974830,0.0003189146518707280,0.002298936247825620,0.001064062118530270
2022-11-12T02:34:07.506-07:00,0.09542703628540040,0.05744403600692750,-0.06011359766125680,0.006000012159347530,-0.01956824958324430,0.004838943481445310
2022-11-12T02:34:07.516-07:00,0.03570342063903810,0.04960964620113370,-0.05769438296556470,0.01025903224945070,-0.03209768235683440,0.003925621509552000
2022-11-12T02:34:07.526-07:00,-0.0254970844835043,0.04717924445867540,-0.05972104892134670,0.009244203567504880,-0.02725565433502200,0.003044426441192630
2022-11-12T02:34:07.536-07:00,-0.07351014763116840,0.04581890255212780,-0.0539419874548912,0.003588631749153140,-0.02331483364105230,0.006134331226348880
2022-11-12T02:34:07.546-07:00,-0.09768739342689510,0.04476455971598630,-0.0501568391919136,-0.003182381391525270,-0.01933945715427400,0.003677189350128170
2022-11-12T02:34:07.556-07:00,-0.07478789985179900,0.04650622978806500,-0.0578634962439537,-0.004534065723419190,-0.005425691604614260,0.0003672242164611820
2022-11-12T02:34:07.566-07:00,-0.008090097457170490,0.05694475769996640,-0.06662742048501970,-0.006435185670852660,0.01623229682445530,-0.001247286796569820
2022-11-12T02:34:07.576-07:00,0.05992487072944640,0.06542962044477460,-0.07584808766841890,-0.01113727688789370,0.03438534587621690,0.00395435094833374
2022-11-12T02:34:07.586-07:00,0.1019247844815250,0.07279007136821750,-0.08666584640741350,-0.0150163471698761,0.02524812519550320,0.004061222076416020
2022-11-12T02:34:07.596-07:00,0.133310005068779,0.0731518566608429,-0.0957014188170433,-0.01475957036018370,0.01235339790582660,0.01079213619232180
2022-11-12T02:34:07.606-07:00,0.1447717100381850,0.07486719638109210,-0.1051585674285890,-0.00615943968296051,0.007124952971935270,0.01289230585098270
2022-11-12T02:34:07.616-07:00,0.1175535768270490,0.07099293172359470,-0.1114614680409430,-0.004197850823402410,0.0001158863306045530,0.008690178394317630
2022-11-12T02:34:07.626-07:00,0.05627557635307310,0.07327446341514590,-0.1147446185350420,-0.008501797914505010,-0.01526583731174470,0.006466269493103030
2022-11-12T02:34:07.636-07:00,-0.009707835502922540,0.06475833803415300,-0.1134892031550410,-0.005250096321105960,-0.02528068423271180,0.006045639514923100
2022-11-12T02:34:07.646-07:00,-0.05058815702795980,0.05473526939749720,-0.1092459857463840,0.005483821034431460,-0.02139344066381450,0.007029592990875240
2022-11-12T02:34:07.656-07:00,-0.07005053758621220,0.04832823574543000,-0.1107703819870950,0.007793605327606200,-0.008242860436439510,0.005375564098358150
2022-11-12T02:34:07.666-07:00,-0.0902910977602005,0.05248836055397990,-0.1123086214065550,-0.0003041177988052370,-0.002010911703109740,0.004846811294555660
2022-11-12T02:34:07.676-07:00,-0.09696517884731290,0.05312851443886760,-0.1116393730044370,-0.006333827972412110,0.004196919500827790,0.00585782527923584
2022-11-12T02:34:07.686-07:00,-0.06919959187507630,0.05096762627363210,-0.1128202229738240,-0.001564532518386840,0.00720195472240448,0.006671905517578130
2022-11-12T02:34:07.696-07:00,-0.03186483681201940,0.05056718736886980,-0.1119493618607520,0.002440080046653750,0.02370189130306240,0.01184648275375370
2022-11-12T02:34:07.706-07:00,0.02606823854148390,0.05364393442869190,-0.1158266589045530,-0.001902997493743900,0.03072436153888700,0.01411527395248410
2022-11-12T02:34:07.716-07:00,0.06022917479276660,0.05616911128163340,-0.1135688275098800,-0.002440229058265690,0.02683315426111220,0.01500105857849120
2022-11-12T02:34:07.727-07:00,0.08102260529994970,0.05178208649158480,-0.1093013808131220,0.004372686147689820,0.02223166823387150,0.01017171144485470
2022-11-12T02:34:07.736-07:00,0.09868508577346800,0.04385478794574740,-0.1037023514509200,0.008177280426025390,0.01055720448493960,0.00903022289276123
2022-11-12T02:34:07.747-07:00,0.095034159719944,0.03951303660869600,-0.09597305953502660,0.008256271481513980,0.01020883768796920,0.008224725723266600
2022-11-12T02:34:07.772-07:00,0.05820037797093390,0.03761806711554530,-0.08804535865783690,0.008029773831367490,0.002957522869110110,0.003280103206634520
2022-11-12T02:34:07.774-07:00,-0.002829156816005710,0.03516396507620810,-0.07537031173706060,0.008260339498519900,-0.0132126584649086,0.0005524158477783200
2022-11-12T02:34:07.777-07:00,-0.08275714516639710,0.0340743288397789,-0.07306455075740810,0.0119822770357132,-0.02340953052043920,-0.00408172607421875
2022-11-12T02:34:07.787-07:00,-0.1461739242076870,0.03825309500098230,-0.0683603435754776,0.01291161775588990,-0.03101339191198350,-0.002614736557006840
2022-11-12T02:34:07.797-07:00,-0.1851700693368910,0.03716599196195600,-0.06317064166069030,0.01503260433673860,-0.02973577380180360,-0.002704262733459470
2022-11-12T02:34:07.807-07:00,-0.2160363644361500,0.04462390765547750,-0.05929041653871540,0.01602408289909360,-0.02015169709920880,0.001852035522460940
2022-11-12T02:34:07.817-07:00,-0.1930793970823290,0.05190738663077350,-0.06219273060560230,0.01060531288385390,-0.01238910853862760,0.004993677139282230
2022-11-12T02:34:07.827-07:00,-0.1202129125595090,0.06329639256000520,-0.07333752512931820,0.01063191145658490,0.01038450002670290,0.01015746593475340
2022-11-12T02:34:07.837-07:00,-0.01000890508294110,0.06570203602314000,-0.08570577204227450,0.01836591958999630,0.03965374827384950,0.01447826623916630
2022-11-12T02:34:07.847-07:00,0.0814238116145134,0.07117509841918950,-0.09574216604232790,0.02100390195846560,0.04072006046772000,0.00872504711151123
2022-11-12T02:34:07.857-07:00,0.1201421767473220,0.07474825531244280,-0.09946739673614500,0.02025436609983440,0.02454973012208940,0.001666009426116940
2022-11-12T02:34:07.867-07:00,0.1088090986013410,0.07838667184114460,-0.09697148203849790,0.02025910466909410,8.99732112884522E-05,-0.006260871887207030
2022-11-12T02:34:07.877-07:00,0.05893158167600630,0.0739375576376915,-0.09474747627973560,0.02328481525182720,-0.0169202983379364,-0.003291130065917970
2022-11-12T02:34:07.887-07:00,-0.008588074706494810,0.07794241607189180,-0.09491312503814700,0.0235237181186676,-0.02808653563261030,-0.0008008480072021480
2022-11-12T02:34:07.897-07:00,-0.06047484278678890,0.07986827939748760,-0.09355438500642780,0.02131384611129760,-0.03451631963253020,0.002572596073150640
2022-11-12T02:34:07.907-07:00,-0.110898070037365,0.08101264387369160,-0.0888882577419281,0.0167204886674881,-0.02769254893064500,0.00949549674987793
2022-11-12T02:34:07.917-07:00,-0.1423569917678830,0.08609481900930410,-0.09547025710344320,0.01714498549699780,-0.01348113268613820,0.0132821798324585
2022-11-12T02:34:07.927-07:00,-0.1326082199811940,0.08856490254402160,-0.09997393190860750,0.02136769145727160,0.0008437186479568480,0.01518881320953370
2022-11-12T02:34:07.937-07:00,-0.1159108728170400,0.09484530240297320,-0.09542232006788250,0.02476414293050770,0.008167453110218050,0.01199686527252200
2022-11-12T02:34:07.947-07:00,-0.09073813259601590,0.09513930976390840,-0.09596347063779830,0.02530994266271590,0.005967661738395690,0.004600167274475100
2022-11-12T02:34:07.957-07:00,-0.07640624046325680,0.1038570702075960,-0.096180260181427,0.02336825430393220,0.007620073854923250,-0.002202153205871580
2022-11-12T02:34:07.967-07:00,-0.06760714948177340,0.1096734181046490,-0.1013047099113460,0.02104576677083970,0.008659109473228460,-0.004721999168396000
2022-11-12T02:34:07.977-07:00,-0.05780569091439250,0.1146761998534200,-0.1081525012850760,0.01860251277685170,0.004036948084831240,0.0003483891487121580
2022-11-12T02:34:07.987-07:00,-0.06049121916294100,0.1199777573347090,-0.1064723134040830,0.01794764399528500,-0.001616217195987700,0.004867494106292730
2022-11-12T02:34:07.997-07:00,-0.08351051807403560,0.118985190987587,-0.1058411449193950,0.0147235170006752,-0.007359579205513,0.004335641860961910
2022-11-12T02:34:08.008-07:00,-0.09866151213645940,0.1206656470894810,-0.1081261336803440,0.00809633731842041,-0.0113326758146286,0.001662075519561770
2022-11-12T02:34:08.017-07:00,-0.1056551039218900,0.1261148750782010,-0.1121629551053050,0.001372955739498140,-0.007937178015708920,-0.000647425651550293
2022-11-12T02:34:08.028-07:00,-0.1221520528197290,0.1309937834739690,-0.1181926131248470,0.002121664583683010,-0.003944151103496550,-0.0004124641418457030
2022-11-12T02:34:08.038-07:00,-0.1508935540914540,0.1330179125070570,-0.1290979981422420,-0.002662785351276400,-0.01457685977220540,-0.001012682914733890
2022-11-12T02:34:08.048-07:00,-0.1843047738075260,0.1349846571683880,-0.1368025094270710,-0.003617256879806520,-0.02111838012933730,0.004363119602203370
2022-11-12T02:34:08.058-07:00,-0.2011212706565860,0.1315717995166780,-0.1454516649246220,-0.004381835460662840,-0.02312681823968890,0.01067811250686650
2022-11-12T02:34:08.068-07:00,-0.1790002584457400,0.1294295489788060,-0.1619102656841280,-0.007874459028244020,-0.01645193248987200,0.01293784379959110
2022-11-12T02:34:08.078-07:00,-0.1548849940299990,0.1273783147335050,-0.1733152568340300,-0.01151766628026960,-0.006997652351856230,0.01500290632247930
2022-11-12T02:34:08.088-07:00,-0.1416927576065060,0.1278302520513540,-0.1954112350940700,-0.01279544085264210,-0.004456304013729100,0.01132172346115110
2022-11-12T02:34:08.098-07:00,-0.149616003036499,0.1213633641600610,-0.2063688039779660,-0.01011127233505250,-0.01377934217453000,0.006914734840393070
2022-11-12T02:34:08.108-07:00,-0.1751333475112920,0.1152330338954930,-0.2252143919467930,-0.01301073282957080,-0.0227338895201683,0.0002228021621704100
2022-11-12T02:34:08.118-07:00,-0.2153020054101940,0.1066040545701980,-0.2359432131052020,-0.01905875653028490,-0.03532850742340090,0.0004670023918151860
2022-11-12T02:34:08.128-07:00,-0.2507441639900210,0.1023477911949160,-0.2460163533687590,-0.02566388249397280,-0.03873597085475920,-0.002005994319915770
2022-11-12T02:34:08.138-07:00,-0.2823893129825590,0.1106942743062970,-0.2675512135028840,-0.03167593479156490,-0.03233405202627180,0.0009871125221252440
2022-11-12T02:34:08.148-07:00,-0.3005733788013460,0.1167668104171750,-0.2865068018436430,-0.03674250841140750,-0.03450983762741090,0.006861329078674320
2022-11-12T02:34:08.158-07:00,-0.2800408899784090,0.1105078160762790,-0.2996566891670230,-0.03520292788743970,-0.03802399337291720,0.01100236177444460
2022-11-12T02:34:08.168-07:00,-0.2330608665943150,0.1041170284152030,-0.3159112930297850,-0.02665013819932940,-0.02450124174356460,0.01111054420471190
2022-11-12T02:34:08.178-07:00,-0.1804570108652120,0.1071519404649730,-0.3374948799610140,-0.03296110779047010,-0.005950063467025760,0.005563318729400640
2022-11-12T02:34:08.188-07:00,-0.1481049209833150,0.1135810762643810,-0.359079509973526,-0.04074417799711230,-0.00304030254483223,-0.0001754164695739750
2022-11-12T02:34:08.198-07:00,-0.1467642188072210,0.1091359257698060,-0.3755772709846500,-0.03729627281427380,-0.01546930149197580,-0.0005692839622497560
2022-11-12T02:34:08.208-07:00,-0.1750155687332150,0.09427895396947860,-0.3911940455436710,-0.02355986833572390,-0.03062466531991960,0.007821559906005860
2022-11-12T02:34:08.218-07:00,-0.225507840514183,0.07650614529848100,-0.4034685492515560,-0.0173695981502533,-0.0487486943602562,0.01685869693756100
2022-11-12T02:34:08.228-07:00,-0.2649271488189700,0.0647679939866066,-0.4177545607090000,-0.0148545503616333,-0.05518252402544020,0.01738625764846800
2022-11-12T02:34:08.238-07:00,-0.2776559889316560,0.05147961899638180,-0.4190802872180940,-0.01452146470546720,-0.04639338701963430,0.01483017206192020
2022-11-12T02:34:08.248-07:00,-0.2834747135639190,0.04063069820404050,-0.4227354824543000,-0.01466496288776400,-0.02819770947098730,0.00187075138092041
2022-11-12T02:34:08.272-07:00,-0.2731845080852510,0.04197609797120090,-0.4366155862808230,-0.01656380295753480,-0.0169973187148571,-0.004525542259216310
2022-11-12T02:34:08.274-07:00,-0.262448787689209,0.04278223589062690,-0.4340115487575530,-0.01880840957164760,-0.01509356871247290,-0.00357508659362793
2022-11-12T02:34:08.278-07:00,-0.2569724023342130,0.04481888562440870,-0.4297201633453370,-0.01760730147361760,-0.01554298773407940,0.002493858337402340
2022-11-12T02:34:08.289-07:00,-0.2545712888240810,0.04454857483506200,-0.4309875667095180,-0.01439103484153750,-0.01823218911886220,0.006129205226898190
2022-11-12T02:34:08.298-07:00,-0.2441509664058690,0.03724069520831110,-0.4322032630443570,-0.01270569860935210,-0.01689673215150830,0.01167750358581540
2022-11-12T02:34:08.309-07:00,-0.2114012837409970,0.0342603512108326,-0.4402777254581450,-0.01052124053239820,-0.009910538792610170,0.01798534393310550
2022-11-12T02:34:08.318-07:00,-0.1635429263114930,0.03332531452178960,-0.4378563761711120,-0.006234139204025270,0.003151172772049900,0.02415454387664800
2022-11-12T02:34:08.328-07:00,-0.1308294534683230,0.02935800328850750,-0.430540144443512,-0.0007822215557098390,0.006397992372512820,0.01501727104187010
2022-11-12T02:34:08.338-07:00,-0.1271750777959820,0.03126376122236250,-0.4199194610118870,0.0003772228956222530,0.005628751590847970,0.0006694197654724120
2022-11-12T02:34:08.349-07:00,-0.1385132074356080,0.03470563143491750,-0.408121645450592,-0.005101568996906280,0.01005400158464910,-0.01395058631896970
2022-11-12T02:34:08.359-07:00,-0.1473519802093510,0.0400141105055809,-0.3988088369369510,-0.004340216517448430,0.003299981355667110,-0.01767176389694210
2022-11-12T02:34:08.369-07:00,-0.1683670580387120,0.03775448352098470,-0.387278139591217,0.003234639763832090,0.006204864010214810,-0.02045977115631100
2022-11-12T02:34:08.379-07:00,-0.1934688538312910,0.03034413978457450,-0.3694488108158110,0.01139301061630250,0.005639929324388500,-0.01404654979705810
2022-11-12T02:34:08.389-07:00,-0.218049019575119,0.02137994021177290,-0.357579380273819,0.01244776695966720,0.004349656403064730,-0.006126463413238530
2022-11-12T02:34:08.399-07:00,-0.2106420397758480,0.009767292067408560,-0.3487882614135740,0.01045634597539900,0.01261346600949760,0.001998066902160650
2022-11-12T02:34:08.409-07:00,-0.1784026175737380,0.009134259074926380,-0.336244523525238,0.006119921803474430,0.02638474851846700,0.009577512741088870
2022-11-12T02:34:08.419-07:00,-0.1444936096668240,0.009937169030308720,-0.3234357833862310,-0.001923002302646640,0.03630452230572700,0.00960928201675415
2022-11-12T02:34:08.429-07:00,-0.1058607324957850,0.007447645999491220,-0.314022570848465,-0.00875718891620636,0.04462462663650510,0.004796743392944340
2022-11-12T02:34:08.439-07:00,-0.0583474412560463,0.005531667731702330,-0.3054756820201870,-0.01004987955093380,0.05643509328365330,-0.004648149013519290
2022-11-12T02:34:08.449-07:00,-0.01096155121922490,0.01111525110900400,-0.2940541803836820,-0.01287338137626650,0.06507476419210430,-0.01058900356292730
2022-11-12T02:34:08.459-07:00,0.01450233161449430,0.01939228922128680,-0.2730479538440700,-0.01714944839477540,0.06125006079673770,-0.01587426662445070
2022-11-12T02:34:08.469-07:00,0.003670722246170040,0.02614367008209230,-0.2576152086257940,-0.01579432934522630,0.05000261217355730,-0.01190871000289920
2022-11-12T02:34:08.479-07:00,-0.0291316993534565,0.02808031998574730,-0.244124174118042,-0.01138483732938770,0.03384938836097720,-0.004304409027099610
2022-11-12T02:34:08.489-07:00,-0.0746038407087326,0.02287650294601920,-0.2267997860908510,-0.006427787244319920,0.0210733525454998,-0.003928899765014650
2022-11-12T02:34:08.499-07:00,-0.1248922795057300,0.01505130343139170,-0.2197011262178420,-0.002935968339443210,0.01876138523221020,0.001803755760192870
2022-11-12T02:34:08.509-07:00,-0.1528035402297970,0.009159591980278490,-0.2114980518817900,-0.004530236124992370,0.01913239993155000,0.006528496742248540
2022-11-12T02:34:08.519-07:00,-0.1623802036046980,-0.002713911468163130,-0.2066686898469930,-0.004844389855861660,0.02073753625154500,0.007631361484527590
2022-11-12T02:34:08.529-07:00,-0.1414608061313630,-0.007133160717785360,-0.2077680379152300,-0.004504024982452390,0.03083130717277530,0.004683136940002440
2022-11-12T02:34:08.539-07:00,-0.102621391415596,0.001571780536323790,-0.2077813446521760,-0.007633402943611150,0.04302440583705900,0.0004786252975463870
2022-11-12T02:34:08.549-07:00,-0.07258040457963940,-0.004950034897774460,-0.2132919579744340,-0.009852603077888490,0.04608546942472460,0.001917839050292970
2022-11-12T02:34:08.559-07:00,-0.06009294465184210,-0.01015907805413010,-0.209697499871254,-0.00388634204864502,0.03482222184538840,0.01040124893188480
2022-11-12T02:34:08.569-07:00,-0.08102379739284520,-0.02416117861866950,-0.1969140619039540,0.009635418653488160,0.01719382405281070,0.01338517665863040
2022-11-12T02:34:08.580-07:00,-0.121455006301403,-0.03982333093881610,-0.1796916574239730,0.02005283534526830,0.008407150395214560,0.01457458734512330
2022-11-12T02:34:08.589-07:00,-0.1691711246967320,-0.0497039258480072,-0.1639582365751270,0.02291581034660340,0.002361126244068150,0.01682400703430180
2022-11-12T02:34:08.599-07:00,-0.2099295407533650,-0.06072668358683590,-0.1466117352247240,0.02056913077831270,0.0069871935993433,0.01225912570953370
2022-11-12T02:34:08.609-07:00,-0.2339336723089220,-0.07096254080533980,-0.130888432264328,0.01953018456697460,0.01111041754484180,0.005517721176147460
2022-11-12T02:34:08.620-07:00,-0.2470937520265580,-0.08408333361148830,-0.1149257123470310,0.02027329802513120,0.01655462197959420,-0.0009185075759887700
2022-11-12T02:34:08.629-07:00,-0.2218057066202160,-0.09799915552139280,-0.09728227555751800,0.01943738013505940,0.02532405033707620,-0.004258632659912110
2022-11-12T02:34:08.640-07:00,-0.1397993266582490,-0.1041813492774960,-0.09167578816413880,0.0191289484500885,0.04036981984972950,-0.003518819808959960
2022-11-12T02:34:08.650-07:00,-0.0428520068526268,-0.1006963327527050,-0.08542481064796450,0.01794352382421490,0.05829829350113870,-0.001062273979187010
2022-11-12T02:34:08.660-07:00,0.03443512320518490,-0.09294527024030690,-0.07892003655433660,0.0101749375462532,0.05949970707297330,-0.003582358360290530
2022-11-12T02:34:08.670-07:00,0.05493747070431710,-0.08244335651397710,-0.07523661851882940,0.003892265260219570,0.03814317286014560,-0.002612948417663570
2022-11-12T02:34:08.680-07:00,0.02150151878595350,-0.08418456465005880,-0.07430132478475570,0.003498271107673650,0.008542787283658980,-0.002680301666259770
2022-11-12T02:34:08.690-07:00,-0.0502789318561554,-0.08197520673274990,-0.0657227486371994,0.008958280086517330,-0.01719628274440770,-0.001683592796325680
2022-11-12T02:34:08.700-07:00,-0.1482239067554470,-0.07731784135103230,-0.0717414915561676,0.008194297552108770,-0.03204772248864170,0.004325926303863530
2022-11-12T02:34:08.710-07:00,-0.2701577842235570,-0.07585523277521130,-0.07338465750217440,0.0068325474858284,-0.04849181324243550,0.007883369922637940
2022-11-12T02:34:08.720-07:00,-0.4036172926425930,-0.07158568501472470,-0.07226800173521040,0.005746044218540190,-0.0589972585439682,0.01178592443466190
2022-11-12T02:34:08.730-07:00,-0.5540800094604490,-0.06904370337724690,-0.08667410910129550,0.007638297975063320,-0.06361923366785050,0.0100092887878418
2022-11-12T02:34:08.740-07:00,-0.7276815176010130,-0.07145082950592040,-0.09922105073928830,0.00604856014251709,-0.07498399913311010,0.01196932792663570
2022-11-12T02:34:08.758-07:00,-0.9374064803123470,-0.06373351812362670,-0.1208967864513400,0.005969986319541930,-0.08519516885280610,0.01878619194030760
2022-11-12T02:34:08.773-07:00,-1.158969283103940,-0.05485131591558460,-0.1641649007797240,-0.0001098960638046270,-0.1067208051681520,0.01997405290603640
2022-11-12T02:34:08.775-07:00,-1.410385251045230,-0.03664594516158100,-0.2074564397335050,-0.008540548384189610,-0.1307446211576460,0.02943533658981320
2022-11-12T02:34:08.780-07:00,-1.733089208602910,-0.01693492569029330,-0.2628012001514440,-0.01439976692199710,-0.1577847301959990,0.04588806629180910
2022-11-12T02:34:08.790-07:00,-2.163393497467040,0.006688111927360300,-0.3244347274303440,-0.01760159432888030,-0.2108623087406160,0.06790107488632200
2022-11-12T02:34:08.800-07:00,-2.611703157424930,0.003864928381517530,-0.380221039056778,-0.01546306163072590,-0.2754930853843690,0.09370660781860350
2022-11-12T02:34:08.810-07:00,-3.068189859390260,0.00383643270470202,-0.4741246402263640,-0.0006066858768463140,-0.3142333626747130,0.1298481822013860
2022-11-12T02:34:08.820-07:00,-3.430984258651730,0.01171622704714540,-0.578629195690155,0.006992600858211520,-0.3245529532432560,0.1523449420928960
2022-11-12T02:34:08.830-07:00,-3.726579427719120,0.00686341430991888,-0.659396231174469,0.007689237594604490,-0.3296355605125430,0.163076639175415
2022-11-12T02:34:08.840-07:00,-3.936773777008060,0.007995357736945150,-0.7565190196037290,0.00805036723613739,-0.3160999417304990,0.1679291725158690
2022-11-12T02:34:08.850-07:00,-4.004070281982420,0.02122487686574460,-0.8449096083641050,0.002634719014167790,-0.2992923557758330,0.1612629294395450
2022-11-12T02:34:08.860-07:00,-3.953251838684080,0.0250675193965435,-0.9329587817192080,-0.003182195127010350,-0.2544590830802920,0.1446967720985410
2022-11-12T02:34:08.870-07:00,-3.822094202041630,0.04769106954336170,-1.050505399703980,-0.01392890512943270,-0.1995046138763430,0.1214483380317690
2022-11-12T02:34:08.881-07:00,-3.771296262741090,0.1292537003755570,-1.160173296928410,-0.03857515007257460,-0.1779015064239500,0.1007334589958190
2022-11-12T02:34:08.890-07:00,-3.684298038482670,0.1648548394441610,-1.233195066452030,-0.06812705099582670,-0.1933627128601070,0.0732235312461853
2022-11-12T02:34:08.900-07:00,-3.571676969528200,0.1960906833410260,-1.327762246131900,-0.06261149793863300,-0.210793524980545,0.04730135202407840
2022-11-12T02:34:08.911-07:00,-3.453251600265500,0.2220807373523710,-1.383770942687990,-0.06369930505752560,-0.1659444272518160,0.02657902240753170
2022-11-12T02:34:08.920-07:00,-3.335269451141360,0.2535303831100460,-1.421733260154720,-0.07784014940261840,-0.1444666981697080,0.02306282520294190
2022-11-12T02:34:08.931-07:00,-3.279633283615110,0.2901288568973540,-1.440024375915530,-0.09224142134189610,-0.157850980758667,0.04161632061004640
2022-11-12T02:34:08.941-07:00,-3.259641647338870,0.3092904984951020,-1.46928083896637,-0.096812903881073,-0.1498376727104190,0.05975824594497680
2022-11-12T02:34:08.951-07:00,-3.248353242874150,0.3190693557262420,-1.491840958595280,-0.0953056812286377,-0.1452283263206480,0.07051587104797360
2022-11-12T02:34:08.961-07:00,-3.264742851257320,0.3187566697597500,-1.491496324539190,-0.09294405579566960,-0.1375100016593930,0.06848859786987310
2022-11-12T02:34:08.971-07:00,-3.326118469238280,0.3171233534812930,-1.501407384872440,-0.09087593853473660,-0.1379579305648800,0.07327580451965330
2022-11-12T02:34:08.981-07:00,-3.433911323547360,0.3209300339221950,-1.515939474105840,-0.08377598226070400,-0.1563831567764280,0.08023643493652340
2022-11-12T02:34:08.991-07:00,-3.553599834442140,0.3160015940666200,-1.529091477394100,-0.07141628861427310,-0.1824393272399900,0.08647245168685910
2022-11-12T02:34:09.001-07:00,-3.665859460830690,0.2976413071155550,-1.559473514556890,-0.05263917148113250,-0.2017914056777950,0.09006357192993160
2022-11-12T02:34:09.011-07:00,-3.759670734405520,0.2796055674552920,-1.611288070678710,-0.04353490471839910,-0.2158147096633910,0.101829469203949
2022-11-12T02:34:09.021-07:00,-3.844905853271480,0.2839184105396270,-1.668850064277650,-0.03907489776611330,-0.233551561832428,0.1097331047058110
2022-11-12T02:34:09.031-07:00,-3.894603252410890,0.2866681218147280,-1.738103151321410,-0.03959007561206820,-0.2513929605484010,0.1184166073799130
2022-11-12T02:34:09.041-07:00,-3.827287673950200,0.2635297775268560,-1.830652594566350,-0.03833593428134920,-0.260010302066803,0.1308051347732540
2022-11-12T02:34:09.051-07:00,-3.685158729553220,0.2367642372846600,-1.922959923744200,-0.04027187824249270,-0.236128032207489,0.1231129169464110
2022-11-12T02:34:09.062-07:00,-3.548173427581790,0.2229794412851330,-2.004515886306760,-0.05934864282608030,-0.1885300874710080,0.1116169095039370
2022-11-12T02:34:09.074-07:00,-3.369407892227170,0.2281869798898700,-2.097088098526000,-0.09122368693351750,-0.1819058656692510,0.1126621663570400
2022-11-12T02:34:09.081-07:00,-3.161069393157960,0.2237766087055210,-2.191757202148440,-0.1186989545822140,-0.1794441938400270,0.1149816513061520
2022-11-12T02:34:09.091-07:00,-2.873745203018190,0.2066719233989720,-2.288505077362060,-0.1347523331642150,-0.1352530717849730,0.1139825582504270
2022-11-12T02:34:09.101-07:00,-2.568084239959720,0.1954883188009260,-2.378007650375370,-0.1521376371383670,-0.09533464908599850,0.1058112978935240
2022-11-12T02:34:09.111-07:00,-2.303289890289310,0.2005746960639950,-2.430113077163700,-0.1779717206954960,-0.06747525930404660,0.08950555324554440
2022-11-12T02:34:09.121-07:00,-2.02495265007019,0.1887471675872800,-2.496965408325200,-0.2029376327991490,-0.05739748477935790,0.0815504789352417
2022-11-12T02:34:09.131-07:00,-1.706298828125,0.1551681756973270,-2.571603536605840,-0.2131147384643560,-0.04314947128295900,0.08673420548439030
2022-11-12T02:34:09.141-07:00,-1.462407112121580,0.1342695504426960,-2.599570989608770,-0.2144237458705900,-0.01052665710449220,0.0990774929523468
2022-11-12T02:34:09.151-07:00,-1.391108393669130,0.1292066127061840,-2.577924966812130,-0.2248184084892270,0.007811248302459720,0.1083050072193150
2022-11-12T02:34:09.168-07:00,-1.360408306121830,0.09639033675193790,-2.608777523040770,-0.2339575290679930,-0.02506256103515630,0.1273296475410460
2022-11-12T02:34:09.178-07:00,-1.264063715934750,0.04101176559925080,-2.677266359329220,-0.2243878543376920,-0.08064150810241700,0.143482506275177
2022-11-12T02:34:09.201-07:00,-1.143061280250550,-0.01551805716007950,-2.676388263702390,-0.1996802389621740,-0.0843774676322937,0.1529317498207090
2022-11-12T02:34:09.204-07:00,-1.045952916145330,-0.06399264931678770,-2.622045278549190,-0.1888659596443180,-0.05256044864654540,0.1550184786319730
2022-11-12T02:34:09.206-07:00,-0.927731454372406,-0.1208269372582440,-2.603596687316900,-0.1985453963279720,-0.01884675025939940,0.1532686054706570
2022-11-12T02:34:09.211-07:00,-0.7061519026756290,-0.1641096919775010,-2.629007816314700,-0.2135454416275020,0.01076823472976690,0.1434697210788730
2022-11-12T02:34:09.222-07:00,-0.5334481000900270,-0.1613662987947460,-2.599913120269780,-0.2230876684188840,0.04786360263824460,0.1156446933746340
2022-11-12T02:34:09.231-07:00,-0.4604090452194210,-0.1446376591920850,-2.51231861114502,-0.2280933856964110,0.09534454345703130,0.1017509400844570
2022-11-12T02:34:09.241-07:00,-0.3569035530090330,-0.1494722664356230,-2.470897197723390,-0.2293296456336980,0.1124170422554020,0.09467428922653200
2022-11-12T02:34:09.251-07:00,-0.2140694260597230,-0.1503606885671620,-2.440643310546880,-0.2215836644172670,0.1339316964149480,0.08659398555755620
2022-11-12T02:34:09.261-07:00,-0.07286696135997770,-0.1459215432405470,-2.374583959579470,-0.2048695683479310,0.1774662733078000,0.07903802394866940
2022-11-12T02:34:09.272-07:00,0.02372455783188340,-0.1452794522047040,-2.293960571289060,-0.1905097961425780,0.1922896504402160,0.08138808608055120
2022-11-12T02:34:09.282-07:00,0.04275650531053540,-0.1449986845254900,-2.211478710174560,-0.1750661730766300,0.1766357421875,0.09606882929801940
2022-11-12T02:34:09.292-07:00,0.04303240776062010,-0.1644565463066100,-2.129608154296880,-0.1555980443954470,0.1466149687767030,0.116120457649231
2022-11-12T02:34:09.302-07:00,0.0606008842587471,-0.205899178981781,-2.059007167816160,-0.1220672130584720,0.1316015124320980,0.1309323608875280
2022-11-12T02:34:09.312-07:00,0.03978801518678670,-0.2357622683048250,-1.986763596534730,-0.0917695164680481,0.129169762134552,0.1207000911235810
2022-11-12T02:34:09.322-07:00,-0.004133705049753190,-0.2656279504299160,-1.909039855003360,-0.08077925443649290,0.1153373718261720,0.09810152649879460
2022-11-12T02:34:09.332-07:00,-0.06294962018728260,-0.2793421745300290,-1.829499125480650,-0.07302993535995480,0.08219015598297120,0.0724102258682251
2022-11-12T02:34:09.342-07:00,-0.1463231444358830,-0.2877821922302250,-1.73417854309082,-0.06768512725830080,0.08750605583190920,0.03150096535682680
2022-11-12T02:34:09.352-07:00,-0.2260661721229550,-0.2913063764572140,-1.65579080581665,-0.06752526760101320,0.1289110779762270,-0.003372371196746830
2022-11-12T02:34:09.362-07:00,-0.3438399136066440,-0.2553516030311580,-1.590535283088680,-0.07473617792129520,0.1638533473014830,-0.01596015691757200
2022-11-12T02:34:09.372-07:00,-0.5362367630004880,-0.2076189517974850,-1.52847957611084,-0.08257395029067990,0.1621160507202150,-0.0183601975440979
2022-11-12T02:34:09.382-07:00,-0.6935197114944460,-0.1721746176481250,-1.465923070907590,-0.08069688081741330,0.1310575604438780,-0.003816366195678710
2022-11-12T02:34:09.392-07:00,-0.7778633236885070,-0.158069983124733,-1.412408471107480,-0.0629916787147522,0.1248693466186520,0.02054853737354280
2022-11-12T02:34:09.402-07:00,-0.7892575860023500,-0.1554891765117650,-1.36225950717926,-0.04466474056243900,0.1498907208442690,0.04331833124160770
2022-11-12T02:34:09.412-07:00,-0.7615247964859010,-0.1390864998102190,-1.313153743743900,-0.04122567176818850,0.1640400290489200,0.06348331272602080
2022-11-12T02:34:09.422-07:00,-0.6944425702095030,-0.1244578212499620,-1.280182719230650,-0.04387968778610230,0.1587336659431460,0.07498861849308010
2022-11-12T02:34:09.432-07:00,-0.5910088419914250,-0.125472217798233,-1.250542283058170,-0.03396254777908330,0.1604992151260380,0.0680682361125946
2022-11-12T02:34:09.442-07:00,-0.4524279534816740,-0.1406140625476840,-1.216641068458560,-0.01966995000839230,0.1731476187705990,0.03258857131004330
2022-11-12T02:34:09.452-07:00,-0.3357332944870000,-0.1549613028764730,-1.173115968704220,-0.006501674652099610,0.184844970703125,-0.01330995559692380
2022-11-12T02:34:09.462-07:00,-0.2628359794616700,-0.1488570123910900,-1.133628726005550,-0.005868017673492430,0.1809752583503720,-0.05187726020812990
2022-11-12T02:34:09.472-07:00,-0.2288971841335300,-0.1316641718149190,-1.10718834400177,-0.01094192266464230,0.1542906165122990,-0.06987273693084720
2022-11-12T02:34:09.482-07:00,-0.2092458009719850,-0.119121640920639,-1.089172601699830,-0.008777379989624020,0.1319485604763030,-0.07074993848800660
2022-11-12T02:34:09.492-07:00,-0.1858597844839100,-0.1085598170757290,-1.069418430328370,-0.0004518628120422360,0.129539430141449,-0.05828425288200380
2022-11-12T02:34:09.502-07:00,-0.1596331894397740,-0.09911471605300900,-1.060800075531010,0.00213545560836792,0.1335517466068270,-0.04651892185211180
2022-11-12T02:34:09.512-07:00,-0.1352362334728240,-0.09150420129299160,-1.067179203033450,0.003521203994750980,0.1363014578819280,-0.03445200622081760
2022-11-12T02:34:09.522-07:00,-0.0945252850651741,-0.09440997987985610,-1.067739248275760,0.005207717418670650,0.1360809504985810,-0.02715079486370090
2022-11-12T02:34:09.533-07:00,-0.04756789654493330,-0.1000212579965590,-1.067662596702580,0.009753108024597170,0.1407641172409060,-0.02554818987846380
2022-11-12T02:34:09.543-07:00,0.01093093119561670,-0.1056262403726580,-1.055505990982060,0.01215904951095580,0.1464051306247710,-0.02906547486782070
2022-11-12T02:34:09.553-07:00,0.06498724222183230,-0.1094827651977540,-1.033981561660770,0.01123452186584470,0.1473187804222110,-0.03330378234386440
2022-11-12T02:34:09.563-07:00,0.1257590502500530,-0.1041416004300120,-0.996595561504364,0.005698144435882570,0.1485589742660520,-0.03764687478542330
2022-11-12T02:34:09.573-07:00,0.1581521481275560,-0.09644053876399990,-0.9566265344619750,0.00173574686050415,0.1458463668823240,-0.04164308309555050
2022-11-12T02:34:09.583-07:00,0.1506018787622450,-0.08559621125459670,-0.9023140668869020,-0.003921627998352050,0.1422837376594540,-0.05066971480846410
2022-11-12T02:34:09.593-07:00,0.1533124446868900,-0.07826719433069230,-0.8566357493400570,-0.01466691493988040,0.1180838644504550,-0.05024373531341550
2022-11-12T02:34:09.603-07:00,0.1415610760450360,-0.07471676915884020,-0.8102483153343200,-0.01559191942214970,0.1127261221408840,-0.04467965662479400
2022-11-12T02:34:09.613-07:00,0.1250132620334630,-0.07049752026796340,-0.7714875936508180,-0.01311355829238890,0.1096208989620210,-0.03656254708766940
2022-11-12T02:34:09.623-07:00,0.114826038479805,-0.06692425906658170,-0.7289457321166990,-0.007805049419403080,0.1057108938694,-0.0279698371887207
2022-11-12T02:34:09.633-07:00,0.09149967879056930,-0.06611465662717820,-0.6901794075965880,0.0005642175674438480,0.1088893711566930,-0.02196298539638520
2022-11-12T02:34:09.643-07:00,0.06042052060365680,-0.06724909693002700,-0.6468012928962710,0.004016399383544920,0.1113075911998750,-0.01894886791706090
2022-11-12T02:34:09.653-07:00,0.03594766557216640,-0.07613579928874970,-0.6082531213760380,0.002735018730163570,0.1101035475730900,-0.02139711380004880
2022-11-12T02:34:09.663-07:00,0.01623634621500970,-0.07556354999542240,-0.5670676231384280,-0.0005475878715515140,0.1144559979438780,-0.02107143402099610
2022-11-12T02:34:09.673-07:00,0.002440907061100010,-0.06616951525211330,-0.5245640873909000,-0.005557775497436520,0.1217851042747500,-0.02343124151229860
2022-11-12T02:34:09.683-07:00,-0.02414519712328910,-0.05371467769145970,-0.4784938097000120,-0.009570717811584470,0.1236469447612760,-0.02816623449325560
2022-11-12T02:34:09.693-07:00,-0.03751533105969430,-0.04965176060795780,-0.4305643439292910,-0.009934067726135250,0.1193538308143620,-0.03168486058712010
2022-11-12T02:34:09.703-07:00,-0.05683779343962670,-0.04017446935176850,-0.3896036148071290,-0.008406221866607670,0.1182779669761660,-0.0273108184337616
2022-11-12T02:34:09.713-07:00,-0.09282588958740230,-0.02281252294778820,-0.3485549986362460,-0.007846534252166750,0.1162097752094270,-0.02331811189651490
2022-11-12T02:34:09.723-07:00,-0.1240725293755530,-0.01574552431702610,-0.3118962943553930,-0.006978869438171390,0.1079045236110690,-0.01453542709350590
2022-11-12T02:34:09.733-07:00,-0.1568483114242550,-0.009973655454814430,-0.2807093560695650,-0.003060340881347660,0.1023078262805940,-0.007849082350730900
2022-11-12T02:34:09.743-07:00,-0.1923329085111620,-0.006063502281904220,-0.2484472841024400,-0.003493249416351320,0.1046240925788880,-0.005757808685302730
2022-11-12T02:34:09.753-07:00,-0.2135202139616010,0.0003571126144379380,-0.2183157503604890,-0.002705812454223630,0.1078257858753200,-0.007746204733848570
2022-11-12T02:34:09.763-07:00,-0.2213031351566320,0.002474691951647400,-0.1964088529348370,-0.002212405204772950,0.1082583367824550,-0.01143276691436770
2022-11-12T02:34:09.773-07:00,-0.2079055607318880,-0.001965596806257960,-0.1677090376615520,0.002689361572265630,0.1154865920543670,-0.0157507061958313
2022-11-12T02:34:09.783-07:00,-0.195622980594635,-0.009540259838104250,-0.1234688684344290,0.007706582546234130,0.1170019209384920,-0.01896308362483980
2022-11-12T02:34:09.793-07:00,-0.1718912720680240,-0.01764319278299810,-0.08055388927459720,0.01255476474761960,0.1175289154052730,-0.02908354997634890
2022-11-12T02:34:09.803-07:00,-0.1453138589859010,-0.03015325963497160,-0.04033243656158450,0.01236432790756230,0.1120131611824040,-0.0306851863861084
2022-11-12T02:34:09.814-07:00,-0.1426922529935840,-0.0318978950381279,0.001386247109621760,0.008428096771240230,0.1095621287822720,-0.03683042526245120
2022-11-12T02:34:09.824-07:00,-0.1671212017536160,-0.02858302555978300,0.04163992777466770,0.004676163196563720,0.09780225157737730,-0.03863562643527990
2022-11-12T02:34:09.834-07:00,-0.1978815048933030,-0.02266281843185430,0.07056532055139540,0.001411199569702150,0.08482226729393010,-0.03099407255649570
2022-11-12T02:34:09.844-07:00,-0.2229336947202680,-0.0134029071778059,0.08474612236022950,0.005774438381195070,0.07513868808746340,-0.0229150801897049
2022-11-12T02:34:09.854-07:00,-0.2432946264743810,-0.01558190584182740,0.1062607318162920,0.01840054988861080,0.07387641072273250,-0.01702703535556790
2022-11-12T02:34:09.864-07:00,-0.2342025935649870,-0.0265706405043602,0.1177991405129430,0.02801048755645750,0.07083821296691900,-0.0149797797203064
2022-11-12T02:34:09.874-07:00,-0.2130187451839450,-0.03216061741113660,0.1317208260297780,0.03386592864990230,0.0748494565486908,-0.01908068358898160
2022-11-12T02:34:09.884-07:00,-0.1859975457191470,-0.03671325743198400,0.1497019529342650,0.03166145086288450,0.07832559943199160,-0.02552519738674160
2022-11-12T02:34:09.894-07:00,-0.1515966951847080,-0.04415945708751680,0.1653544157743450,0.02857130765914920,0.07443550229072570,-0.03215950727462770
2022-11-12T02:34:09.904-07:00,-0.1110562533140180,-0.04135561361908910,0.1752176880836490,0.01969468593597410,0.07077401876449590,-0.03074562549591060
2022-11-12T02:34:09.914-07:00,-0.08510135114192960,-0.02964835613965990,0.1854796558618550,0.009465932846069340,0.06649476289749150,-0.02787750959396360
2022-11-12T02:34:09.924-07:00,-0.07724436372518540,-0.01621071249246600,0.1924808472394940,0.003487229347229000,0.05602636933326720,-0.02663739025592800
2022-11-12T02:34:09.934-07:00,-0.07240593433380130,-0.01307004597038030,0.1880464106798170,0.006792902946472170,0.03680339455604550,-0.02099372446537020
2022-11-12T02:34:09.944-07:00,-0.05675177276134490,-0.02035229466855530,0.186064213514328,0.01717585325241090,0.03511714935302730,-0.01521843671798710
2022-11-12T02:34:09.954-07:00,-0.05085713416337970,-0.02736865915358070,0.1939911097288130,0.02077913284301760,0.03717461228370670,-0.02363693714141850
2022-11-12T02:34:09.964-07:00,-0.04111119732260700,-0.03423305600881580,0.1937823295593260,0.0162043571472168,0.02871891856193540,-0.02569486200809480
2022-11-12T02:34:09.974-07:00,-0.02519295178353790,-0.03494997695088390,0.1889097988605500,0.01036053895950320,0.0265536904335022,-0.02524745464324950
2022-11-12T02:34:09.984-07:00,-0.01500263065099720,-0.02636208198964600,0.1935820579528810,0.006226778030395510,0.02644544839859010,-0.02522873878479000
2022-11-12T02:34:09.994-07:00,-0.03014110401272770,-0.02069194614887240,0.2006887048482900,0.00206834077835083,0.0202440619468689,-0.02310585975646970
2022-11-12T02:34:10.004-07:00,-0.03947575017809870,-0.009648350067436700,0.1962478756904600,0.002544760704040530,0.008291780948638920,-0.01924939453601840
2022-11-12T02:34:10.014-07:00,-0.06558884680271150,-0.006254684180021290,0.1943328082561490,0.005334854125976560,0.00191199779510498,-0.01667612791061400
2022-11-12T02:34:10.024-07:00,-0.08084236830472950,-0.009819325059652330,0.1950228214263920,0.006463527679443360,0.001518756151199340,-0.01501405239105230
2022-11-12T02:34:10.034-07:00,-0.08343948423862460,-0.009659535251557830,0.1888706535100940,0.005571961402893070,-0.0008477568626403810,-0.01353788375854490
2022-11-12T02:34:10.044-07:00,-0.06972566246986390,-0.009504673071205620,0.1783815175294880,0.003431499004364010,-0.00235322117805481,-0.01348595321178440
2022-11-12T02:34:10.054-07:00,-0.04109268635511400,-0.01287330500781540,0.1755295395851140,0.002988338470458980,0.000993877649307251,-0.01418568193912510
2022-11-12T02:34:10.064-07:00,-0.01252768840640780,-0.01637955754995350,0.1716706305742260,0.004361510276794430,0.002415359020233150,-0.01519905030727390
2022-11-12T02:34:10.074-07:00,0.0168448481708765,-0.02332641184329990,0.1653187274932860,0.003324449062347410,-0.0003336966037750240,-0.01601938903331760
2022-11-12T02:34:10.084-07:00,0.03592745959758760,-0.02415572106838230,0.1622254699468610,0.001717567443847660,-0.001579821109771730,-0.02213317155838010
2022-11-12T02:34:10.094-07:00,0.05113011598587040,-0.02102890238165860,0.1558160334825520,-0.00286334753036499,-0.005317270755767820,-0.02617841958999630
2022-11-12T02:34:10.104-07:00,0.06011185795068740,-0.01691694930195810,0.1455594003200530,-0.004203379154205320,-0.008980423212051390,-0.0190497487783432
2022-11-12T02:34:10.115-07:00,0.07172191143035890,-0.0159081444144249,0.1346348524093630,7.58767127990723E-05,-0.01484164595603940,-0.0161651223897934
2022-11-12T02:34:10.125-07:00,0.08175130933523180,-0.02011853456497190,0.1307599544525150,0.006353795528411870,-0.01815199851989750,-0.01313011348247530
2022-11-12T02:34:10.135-07:00,0.08841107785701750,-0.02084717527031900,0.1214375495910650,0.00660550594329834,-0.020201176404953,-0.01096455752849580
2022-11-12T02:34:10.145-07:00,0.08829013258218770,-0.01787665113806730,0.1078940480947500,0.005913078784942630,-0.02374836802482610,-0.008499160408973690
2022-11-12T02:34:10.155-07:00,0.05614551156759260,-0.01659167744219300,0.09529969096183780,0.005936324596405030,-0.02749460935592650,-0.0119287371635437
2022-11-12T02:34:10.165-07:00,0.04384620115160940,-0.01078515406697990,0.08693550527095800,0.00197678804397583,-0.03686520457267760,-0.01528045535087590
2022-11-12T02:34:10.175-07:00,0.0386117585003376,-0.02040955238044260,0.07483144104480740,0.004327654838562010,-0.03616538643836980,-0.01539397239685060
2022-11-12T02:34:10.185-07:00,0.0359787605702877,-0.02642569877207280,0.05882877111434940,0.00780332088470459,-0.029774010181427,-0.01721684634685520
2022-11-12T02:34:10.195-07:00,0.03282078355550770,-0.02570531331002710,0.0398675948381424,0.006049036979675290,-0.03202426433563230,-0.01644395291805270
2022-11-12T02:34:10.205-07:00,0.02841941080987450,-0.02184163220226770,0.02397757582366470,0.003400146961212160,-0.03293827176094060,-0.0142914205789566
2022-11-12T02:34:10.215-07:00,0.01473901979625230,-0.01924291998147960,0.01196299120783810,0.003933727741241460,-0.03026974201202390,-0.01377615332603460
2022-11-12T02:34:10.225-07:00,0.01248175837099550,-0.02061288431286810,-0.001815937925130130,0.0007165074348449710,-0.02563858032226560,-0.008563369512557980
2022-11-12T02:34:10.235-07:00,0.02057030983269220,-0.01976732909679410,-0.03170459344983100,-0.004133939743041990,-0.02047014236450200,-0.009124204516410830
2022-11-12T02:34:10.245-07:00,-9.5786526799202E-05,-0.003886135062202810,-0.05916817486286160,-0.01429849863052370,-0.02506905794143680,-0.01509511470794680
2022-11-12T02:34:10.255-07:00,-0.06424041837453840,0.02756526507437230,-0.06006619334220890,-0.02008348703384400,-0.03079834580421450,-0.02378553152084350
2022-11-12T02:34:10.265-07:00,-0.1596764922142030,0.07100178301334380,-0.05091344192624090,-0.02437353134155270,-0.04312592744827270,-0.03604686260223390
2022-11-12T02:34:10.275-07:00,-0.2494950741529470,0.1180787533521650,-0.02418995276093480,-0.02282881736755370,-0.04784393310546880,-0.04839026927948000
2022-11-12T02:34:10.285-07:00,-0.331451803445816,0.1522714495658880,0.03161126002669330,-0.02003920078277590,-0.01810228824615480,-0.04640734195709230
2022-11-12T02:34:10.295-07:00,-0.3633040189743040,0.1880179941654210,0.05935820564627650,-0.0125766396522522,0.0376751720905304,-0.03875814378261570
2022-11-12T02:34:10.306-07:00,-0.3414065837860110,0.2361190617084500,0.08213808387517930,-0.02107363939285280,0.08220845460891720,-0.02784931659698490
2022-11-12T02:34:10.315-07:00,-0.238334521651268,0.2433543354272840,0.1570594608783720,-0.02960437536239620,0.1570849716663360,-0.0202871710062027
2022-11-12T02:34:10.326-07:00,0.001229202374815940,0.2315337806940080,0.2652245461940770,-0.02392208576202390,0.2727617919445040,-0.0216490775346756
2022-11-12T02:34:10.335-07:00,0.280449390411377,0.2446607649326320,0.4022899866104130,-0.01637005805969240,0.3937821090221410,-0.03584915399551390
2022-11-12T02:34:10.345-07:00,0.5063942670822140,0.3299640119075780,0.6387877464294430,-0.02678900957107540,0.5262112617492680,-0.07570254802703860
2022-11-12T02:34:10.355-07:00,0.6144421696662900,0.4753643572330480,0.9168018102645870,-0.04729634523391720,0.6487741470336910,-0.1119615286588670
2022-11-12T02:34:10.365-07:00,0.4086745083332060,0.6818170547485350,1.294678807258610,-0.06073808670043950,0.7073831558227540,-0.1151383221149450
2022-11-12T02:34:10.376-07:00,-0.0869046226143837,0.8317828178405760,1.767383217811580,-0.06103616952896120,0.7217549085617070,-0.1026285588741300
2022-11-12T02:34:10.385-07:00,-0.6396996378898620,0.8485907912254330,2.26056694984436,-0.03131133317947390,0.7937391996383670,-0.1175466775894170
2022-11-12T02:34:10.395-07:00,-0.9947879314422610,0.8020217418670650,2.825212240219120,0.008441746234893800,1.05015230178833,-0.1650181263685230
2022-11-12T02:34:10.406-07:00,-1.17007577419281,0.7716575860977170,3.460277795791630,0.012381911277771,1.437610864639280,-0.1869398206472400
2022-11-12T02:34:10.416-07:00,-1.026373982429500,0.7317469120025640,4.104132175445560,-0.04983425140380860,1.786932468414310,-0.140658438205719
2022-11-12T02:34:10.426-07:00,-0.5319879651069640,0.7139476537704470,4.778178691864010,-0.1607584953308110,1.978633880615230,-0.06745091080665590
2022-11-12T02:34:10.436-07:00,0.019531374797225,0.7819805145263670,5.595152378082280,-0.2848913669586180,2.134654521942140,-0.04278677701950070
2022-11-12T02:34:10.446-07:00,0.4203136563301090,0.9055038690567020,6.295199394226070,-0.4412219524383550,2.212076425552370,-0.1171773672103880
2022-11-12T02:34:10.456-07:00,0.5143918991088870,1.002733111381530,7.021275043487550,-0.6296772956848150,2.112236499786380,-0.1612550467252730
2022-11-12T02:34:10.466-07:00,0.3488146662712100,0.8752179145812990,7.610775470733640,-0.7906137108802800,1.926498174667360,-0.1336272060871120
2022-11-12T02:34:10.476-07:00,0.2529307305812840,0.639626145362854,7.988258838653560,-0.8980642557144170,1.730476856231690,-0.06248205900192260
2022-11-12T02:34:10.486-07:00,0.2689394950866700,0.4163424968719480,8.250860214233400,-0.9937438368797300,1.505878925323490,-0.006387501955032350
2022-11-12T02:34:10.496-07:00,0.4027236104011540,0.1843633353710180,8.341884613037110,-1.083311319351200,1.190092444419860,0.05221182107925420
2022-11-12T02:34:10.506-07:00,0.5735049247741700,-0.01532474532723430,8.317937850952150,-1.147039175033570,0.8128349184989930,0.1395377516746520
2022-11-12T02:34:10.516-07:00,0.6654886603355410,-0.1755849868059160,8.119498252868650,-1.197024345397950,0.433354377746582,0.2485258281230930
2022-11-12T02:34:10.526-07:00,0.7405134439468380,-0.2740338742733000,7.818715572357180,-1.260057687759400,0.08071547746658330,0.3400643169879910
2022-11-12T02:34:10.536-07:00,0.811592161655426,-0.3328561782836910,7.462020397186280,-1.317598462104800,-0.2167719006538390,0.3947259485721590
2022-11-12T02:34:10.546-07:00,0.8250412940979000,-0.414254754781723,7.138592720031740,-1.347709178924560,-0.3963525295257570,0.4413888454437260
2022-11-12T02:34:10.556-07:00,0.610260546207428,-0.4962210059165960,6.764756679534910,-1.383575916290280,-0.4684944152832030,0.4313074350357060
2022-11-12T02:34:10.566-07:00,0.316455751657486,-0.517029345035553,6.330883026123050,-1.471425533294680,-0.6413421034812930,0.3963169157505040
2022-11-12T02:34:10.576-07:00,-0.01124647539108990,-0.5219047665596010,5.96042013168335,-1.519628882408140,-0.8339331150054930,0.3932365477085110
2022-11-12T02:34:10.586-07:00,-0.3464425206184390,-0.5256838202476500,5.610158920288090,-1.469558715820310,-0.9073721170425420,0.3680423498153690
2022-11-12T02:34:10.596-07:00,-0.5411957502365110,-0.6302304863929750,5.234817504882810,-1.343480944633480,-0.8969922065734860,0.3239191472530370
2022-11-12T02:34:10.606-07:00,-0.6643511056900020,-0.7799186706542970,4.821353912353520,-1.219277024269100,-0.8440403938293460,0.2749562859535220
2022-11-12T02:34:10.616-07:00,-0.6899363994598390,-0.8282417058944700,4.411509037017820,-1.158073425292970,-0.8201009035110470,0.2107643187046050
2022-11-12T02:34:10.626-07:00,-0.6748539805412290,-0.7911248207092290,4.007633209228520,-1.113370060920720,-0.8706246018409730,0.1592678725719450
2022-11-12T02:34:10.636-07:00,-0.4904492795467380,-0.7308787703514100,3.56280255317688,-1.020270824432370,-0.953485369682312,0.1079864501953130
2022-11-12T02:34:10.646-07:00,-0.3246998190879820,-0.6772385835647580,3.227870225906370,-0.8874665498733520,-1.002084970474240,0.0634014904499054
2022-11-12T02:34:10.656-07:00,-0.1820148527622220,-0.6575103998184200,2.964816331863400,-0.7631132006645200,-0.9677439332008360,0.06110620498657230
2022-11-12T02:34:10.666-07:00,-0.03745967149734500,-0.666082501411438,2.60844874382019,-0.6722394227981570,-0.9037973284721380,0.06460481882095340
2022-11-12T02:34:10.677-07:00,0.1643155366182330,-0.6247789859771730,2.193840980529790,-0.6261398196220400,-0.8547060489654540,0.07027283310890200
2022-11-12T02:34:10.686-07:00,0.3303914368152620,-0.545470654964447,1.848058581352230,-0.5857773423194890,-0.8022820353508000,0.07341271638870240
2022-11-12T02:34:10.696-07:00,0.4464802443981170,-0.4834930896759030,1.514787673950200,-0.532109260559082,-0.7234743237495420,0.07240596413612370
2022-11-12T02:34:10.707-07:00,0.5202544331550600,-0.4368534684181210,1.189450144767760,-0.4731524884700780,-0.6876266598701480,0.04456290602684020
2022-11-12T02:34:10.717-07:00,0.5240078568458560,-0.3982986211776730,0.9356079697608950,-0.4066608846187590,-0.6636863350868230,-0.005466252565383910
2022-11-12T02:34:10.727-07:00,0.4712140560150150,-0.3924161493778230,0.7137783765792850,-0.3377746343612670,-0.6215602159500120,-0.04611310362815860
2022-11-12T02:34:10.737-07:00,0.4030373990535740,-0.4263530671596530,0.5128993391990660,-0.2765972018241880,-0.5913509726524350,-0.0688069760799408
2022-11-12T02:34:10.747-07:00,0.3030121922492980,-0.4926598370075230,0.3587925732135770,-0.2290016114711760,-0.5335670709609990,-0.09709987044334410
2022-11-12T02:34:10.757-07:00,0.1853438764810560,-0.5459036231040960,0.2210648059844970,-0.2035418152809140,-0.4576001167297360,-0.1146413385868070
2022-11-12T02:34:10.767-07:00,0.01670623011887070,-0.5525216460227970,0.1456568688154220,-0.1960484683513640,-0.4125869274139400,-0.1128290891647340
2022-11-12T02:34:10.777-07:00,-0.1626177281141280,-0.5241336822509770,0.07172192633152010,-0.1873835921287540,-0.3606149554252630,-0.09463667869567870
2022-11-12T02:34:10.787-07:00,-0.2709727883338930,-0.4724035561084750,-0.01646944880485540,-0.1550561785697940,-0.3194445371627810,-0.07705450057983400
2022-11-12T02:34:10.797-07:00,-0.3158465027809140,-0.4146736860275270,-0.07543183863162990,-0.1002652049064640,-0.2463117837905880,-0.06324967741966250
2022-11-12T02:34:10.807-07:00,-0.2604579031467440,-0.3693980276584630,-0.1833119541406630,-0.04490932822227480,-0.1470486521720890,-0.05266833305358890
2022-11-12T02:34:10.817-07:00,-0.05440885946154590,-0.3200224936008450,-0.2856444716453550,-0.007486820220947270,-0.09915047883987430,-0.05329740047454830
2022-11-12T02:34:10.827-07:00,0.224258691072464,-0.2915516793727880,-0.3296619951725010,0.00449797511100769,-0.06207174062728880,-0.06255197525024410
2022-11-12T02:34:10.837-07:00,0.4987991452217100,-0.262114405632019,-0.4054678082466130,0.0004320740699768070,-0.01897335052490230,-0.07300329208374020
2022-11-12T02:34:10.847-07:00,0.7024002075195310,-0.2004118412733080,-0.4896905124187470,-0.01913979649543760,-0.0115172266960144,-0.07994484901428220
2022-11-12T02:34:10.857-07:00,0.7792696356773380,-0.1455232948064800,-0.5052862763404850,-0.02240797877311710,-0.02871733903884890,-0.07547533512115480
2022-11-12T02:34:10.867-07:00,0.695344090461731,-0.1418212056159970,-0.4779635667800900,-0.00368538498878479,-0.03960853815078740,-0.06567898392677310
2022-11-12T02:34:10.877-07:00,0.4979990422725680,-0.1788878738880160,-0.4574199318885800,0.00969010591506958,-0.0267137885093689,-0.07052215933799740
2022-11-12T02:34:10.887-07:00,0.2632704377174380,-0.2144083231687550,-0.4509585797786710,0.001756608486175540,-0.02711141109466550,-0.06963178515434270
2022-11-12T02:34:10.897-07:00,0.02097790502011780,-0.232345774769783,-0.4358224868774410,-0.01656827330589290,-0.02872312068939210,-0.06111499667167660
2022-11-12T02:34:10.907-07:00,-0.1977943778038030,-0.2498051971197130,-0.4332850277423860,-0.0368880033493042,-0.02448433637619020,-0.05262947082519530
2022-11-12T02:34:10.917-07:00,-0.3019229173660280,-0.2534207105636600,-0.4354022443294530,-0.04460826516151430,-0.02550816535949710,-0.04026937484741210
2022-11-12T02:34:10.927-07:00,-0.3045386970043180,-0.2478773295879360,-0.4088590443134310,-0.03654986619949340,0.01027154922485350,-0.03173959255218510
2022-11-12T02:34:10.937-07:00,-0.2052367478609090,-0.2308132201433180,-0.3865084946155550,-0.02527517080307010,0.0653156042098999,-0.02382725477218630
2022-11-12T02:34:10.947-07:00,-0.07983545958995820,-0.189962700009346,-0.3559977412223820,-0.01955753564834600,0.1054863929748540,-0.01176822185516360
2022-11-12T02:34:10.957-07:00,0.004013903439044950,-0.1286479383707050,-0.3209081888198850,-0.01802974939346310,0.1375857591629030,-0.0130234956741333
2022-11-12T02:34:10.967-07:00,0.02731306664645670,-0.07806994765996930,-0.2947585880756380,-0.01514869928359990,0.1335406303405760,-0.0193256139755249
2022-11-12T02:34:10.977-07:00,0.006393138319253920,-0.03039244562387470,-0.2567718029022220,-0.0007269978523254400,0.1148349046707150,-0.03336882591247560
2022-11-12T02:34:10.987-07:00,-0.07872618734836580,0.007261358201503750,-0.200894683599472,0.01598793268203740,0.09270381927490230,-0.04931887984275820
2022-11-12T02:34:10.997-07:00,-0.2334100306034090,0.04020998626947400,-0.1514184772968290,0.03738045692443850,0.06421715021133420,-0.04368028044700620
2022-11-12T02:34:11.008-07:00,-0.3935432434082030,0.07910306006670000,-0.09954729676246640,0.03907838463783260,0.02541106939315800,-0.04187461733818050
2022-11-12T02:34:11.018-07:00,-0.5138078927993770,0.1018978506326680,-0.05118774995207790,0.04159948229789730,0.009342849254608150,-0.03752729296684270
2022-11-12T02:34:11.028-07:00,-0.5433912873268130,0.1127751991152760,-0.03398079797625540,0.0437467098236084,0.02259480953216550,-0.03667902946472170
2022-11-12T02:34:11.038-07:00,-0.4513468146324160,0.1183100491762160,-0.03766821324825290,0.0375826358795166,0.03295767307281490,-0.04317733645439150
2022-11-12T02:34:11.048-07:00,-0.268011063337326,0.1195057779550550,-0.04570776224136350,0.03023403882980350,0.0488167405128479,-0.04360944032669070
2022-11-12T02:34:11.058-07:00,-0.0434650331735611,0.1234272867441180,-0.0497344583272934,0.02083194255828860,0.06901836395263670,-0.04121190309524540
2022-11-12T02:34:11.068-07:00,0.1582263857126240,0.1124957054853440,-0.05935673043131830,0.01098442077636720,0.08270919322967530,-0.0472923219203949
2022-11-12T02:34:11.078-07:00,0.2990809679031370,0.09487756341695790,-0.0740046501159668,-0.004210054874420170,0.0735619068145752,-0.04907798767089840
2022-11-12T02:34:11.088-07:00,0.3773826658725740,0.07938545197248460,-0.08720700442790990,-0.01219594478607180,0.04392558336257940,-0.0396234393119812
2022-11-12T02:34:11.098-07:00,0.3113549053668980,0.06671466678380970,-0.0802934393286705,-0.0068320631980896,0.02009248733520510,-0.02835285663604740
2022-11-12T02:34:11.108-07:00,0.1837157309055330,0.04169506579637530,-0.06802611798048020,0.004114389419555660,-0.01523733139038090,-0.01883429288864140
2022-11-12T02:34:11.118-07:00,0.0569298192858696,0.004515738226473330,-0.05844592675566670,0.01882699131965640,-0.05492854118347170,-0.0129932165145874
2022-11-12T02:34:11.128-07:00,-0.02538276650011540,-0.0243567880243063,-0.0300864577293396,0.03351819515228270,-0.05071592330932620,-0.01098191738128660
2022-11-12T02:34:11.138-07:00,-0.05764430016279220,-0.03841455280780790,-0.02343414723873140,0.02990072965621950,-0.02269363403320310,-0.01153364777565000
2022-11-12T02:34:11.148-07:00,-0.01486497931182380,-0.02359129674732690,-0.03721653670072560,0.008640885353088380,-0.007483124732971190,-0.009176075458526610
2022-11-12T02:34:11.158-07:00,0.07450032234191900,-0.0002420318778604270,-0.04290052503347400,-0.01122695207595830,0.004118084907531740,-0.003458350896835330
2022-11-12T02:34:11.168-07:00,0.1649159044027330,0.02653585188090800,-0.06609798967838290,-0.0218157172203064,0.02006548643112180,-0.003353297710418700
2022-11-12T02:34:11.178-07:00,0.2523613274097440,0.042579535394907,-0.08655878156423570,-0.02675515413284300,0.01481270790100100,-0.007363557815551760
2022-11-12T02:34:11.188-07:00,0.3123961091041570,0.05202153697609900,-0.08832553029060360,-0.03108718991279600,0.002835452556610110,-0.005937695503234860
2022-11-12T02:34:11.198-07:00,0.3103825449943540,0.07493457943201070,-0.09447609633207320,-0.03080177307128910,-0.009106755256652830,0.003636956214904790
2022-11-12T02:34:11.209-07:00,0.2519733309745790,0.09075798094272610,-0.09977738559246060,-0.02463468909263610,-0.03430062532424930,0.0191272497177124
2022-11-12T02:34:11.218-07:00,0.1543807089328770,0.08783276379108430,-0.1027998030185700,-0.01325997710227970,-0.05505633354187010,0.02109360694885250
2022-11-12T02:34:11.228-07:00,0.01527917385101320,0.07779647409915920,-0.09519515186548230,-0.004052251577377320,-0.06594401597976690,0.01867043972015380
2022-11-12T02:34:11.238-07:00,-0.08262261748313900,0.06051681935787200,-0.09268326312303540,-0.002711653709411620,-0.07845890522003170,0.009751111268997190
2022-11-12T02:34:11.248-07:00,-0.1423500329256060,0.03240892291069030,-0.1014791503548620,-0.002348095178604130,-0.06796681880950930,0.003677397966384890
2022-11-12T02:34:11.258-07:00,-0.1763063967227940,0.03141103684902190,-0.1154229268431660,-0.01229327917099000,-0.04629194736480710,0.00032806396484375
2022-11-12T02:34:11.269-07:00,-0.1581901162862780,0.03839157894253730,-0.1379647105932240,-0.03532743453979490,-0.04394418001174930,-0.0008222460746765140
2022-11-12T02:34:11.278-07:00,-0.08344636857509610,0.03263462334871290,-0.1669676005840300,-0.04293259978294370,-0.03637546300888060,9.72151756286621E-05
2022-11-12T02:34:11.288-07:00,0.05376745015382770,0.02829204127192500,-0.2100788503885270,-0.03762906789779660,-0.02374976873397830,-0.004056155681610110
2022-11-12T02:34:11.299-07:00,0.1959520131349560,0.03708979487419130,-0.2467087656259540,-0.03624406456947330,-0.01919341087341310,-0.007662177085876470
2022-11-12T02:34:11.309-07:00,0.3380154073238370,0.04708223789930340,-0.2691086232662200,-0.0333610475063324,-0.021342933177948,-0.008047550916671750
2022-11-12T02:34:11.319-07:00,0.4264768362045290,0.04604467004537580,-0.3048988282680510,-0.02235043048858640,-0.02050340175628660,-0.008820265531539920
2022-11-12T02:34:11.329-07:00,0.4712255299091340,0.04605039954185490,-0.3470084965229030,-0.02457559108734130,-0.02512109279632570,-0.009831935167312620
2022-11-12T02:34:11.339-07:00,0.4563432633876800,0.0447465144097805,-0.3724038600921630,-0.02914154529571530,-0.05831509828567510,0.0007561445236206060
2022-11-12T02:34:11.349-07:00,0.3909003734588620,0.04717288538813590,-0.3846892714500430,-0.03059846162796020,-0.08290821313858030,0.01432913541793820
2022-11-12T02:34:11.359-07:00,0.2984572649002080,0.02855579368770120,-0.3969621956348420,-0.02875620126724240,-0.08837705850601200,0.01956802606582640
2022-11-12T02:34:11.369-07:00,0.1907206326723100,0.01253291871398690,-0.4100516140460970,-0.03430396318435670,-0.08243638277053830,0.01781338453292850
2022-11-12T02:34:11.379-07:00,0.1229996457695960,-0.001588226761668920,-0.44515261054039,-0.04509598016738890,-0.07500505447387700,0.01427704095840450
2022-11-12T02:34:11.389-07:00,0.09046267718076710,8.69682990014553E-05,-0.4840057492256170,-0.05604687333107000,-0.08175349235534670,0.01277950406074520
2022-11-12T02:34:11.399-07:00,0.0971757099032402,-0.004717906937003140,-0.5177208185195920,-0.05717560648918150,-0.08596575260162350,0.009830623865127560
2022-11-12T02:34:11.409-07:00,0.1320938020944600,-0.00927331019192934,-0.5557110905647280,-0.05482897162437440,-0.09098166227340700,0.01404303312301640
2022-11-12T02:34:11.419-07:00,0.1921584755182270,-0.006163803860545160,-0.6112862229347230,-0.05350890755653380,-0.1017445921897890,0.01517891883850100
2022-11-12T02:34:11.429-07:00,0.2550986707210540,-0.009417254477739330,-0.6720126271247860,-0.04785782098770140,-0.1249269843101500,0.017698734998703
2022-11-12T02:34:11.439-07:00,0.3081336617469790,-0.01927228271961210,-0.7212589979171750,-0.04143843054771420,-0.1467618942260740,0.01914620399475100
2022-11-12T02:34:11.449-07:00,0.3092401027679440,-0.0316108725965023,-0.7852100729942320,-0.04278963804245000,-0.1584161520004270,0.01823621988296510
2022-11-12T02:34:11.459-07:00,0.2753702998161320,-0.04107681289315220,-0.8668737411499020,-0.05618298053741460,-0.1701111793518070,0.01659166812896730
2022-11-12T02:34:11.469-07:00,0.2134701460599900,-0.06209391355514530,-0.951781690120697,-0.0737970769405365,-0.1924163103103640,0.01164889335632320
2022-11-12T02:34:11.479-07:00,0.1485809087753300,-0.08474143594503400,-1.044274926185610,-0.08972653746604920,-0.2109831571578980,0.01495832204818730
2022-11-12T02:34:11.489-07:00,0.09094910323619840,-0.09943948686122890,-1.135403513908390,-0.1059260368347170,-0.2278554439544680,0.01762098073959350
2022-11-12T02:34:11.499-07:00,0.0414595790207386,-0.1107784286141400,-1.226723313331600,-0.1192754507064820,-0.2371087670326230,0.0211026668548584
2022-11-12T02:34:11.509-07:00,0.01003211364150050,-0.1257365792989730,-1.33371901512146,-0.122474879026413,-0.2454484105110170,0.02830269932746890
2022-11-12T02:34:11.519-07:00,0.01505137421190740,-0.1498291343450550,-1.428548336029050,-0.1236077547073360,-0.2606229782104490,0.03532832860946660
2022-11-12T02:34:11.529-07:00,0.03646735101938250,-0.1870328485965730,-1.517599582672120,-0.1198628842830660,-0.2627114057540890,0.05020308494567870
2022-11-12T02:34:11.539-07:00,0.09187974780797960,-0.2298090755939480,-1.632777810096740,-0.1252818405628200,-0.2554260492324830,0.06514853239059450
2022-11-12T02:34:11.549-07:00,0.1640632897615430,-0.260121613740921,-1.770139455795290,-0.1356864422559740,-0.2451409101486210,0.07585018873214720
2022-11-12T02:34:11.560-07:00,0.2400968223810200,-0.2797845304012300,-1.900960087776180,-0.1477180868387220,-0.2624695301055910,0.07504504919052120
2022-11-12T02:34:11.569-07:00,0.2687413990497590,-0.3067151308059690,-2.008117437362670,-0.1496660560369490,-0.2753394246101380,0.074634850025177
2022-11-12T02:34:11.579-07:00,0.2842300832271580,-0.3394469618797300,-2.122841119766240,-0.1485188454389570,-0.2916432619094850,0.07437640428543090
2022-11-12T02:34:11.589-07:00,0.2845192849636080,-0.3811869621276860,-2.257632493972780,-0.1436501145362850,-0.2967765927314760,0.05915987491607670
2022-11-12T02:34:11.600-07:00,0.3024575412273410,-0.421538382768631,-2.393426418304440,-0.1389711499214170,-0.2942314743995670,0.03202545642852780
2022-11-12T02:34:11.610-07:00,0.3354477882385250,-0.4424319565296170,-2.506413221359250,-0.1388012766838070,-0.2914565801620480,0.02230969071388250
2022-11-12T02:34:11.620-07:00,0.3527045249938970,-0.4428293108940130,-2.588380336761480,-0.1428757011890410,-0.2857496738433840,0.03196179866790770
2022-11-12T02:34:11.630-07:00,0.2974748015403750,-0.4405125975608830,-2.646583318710330,-0.1491329371929170,-0.2511551380157470,0.04375392198562620
2022-11-12T02:34:11.640-07:00,0.1872638463974000,-0.4450729787349700,-2.741070747375490,-0.1612303256988530,-0.1970471739768980,0.05246055126190190
2022-11-12T02:34:11.650-07:00,0.08035421371459960,-0.4408705532550810,-2.877424955368040,-0.177420437335968,-0.1842820048332210,0.06714946031570440
2022-11-12T02:34:11.660-07:00,0.04270324110984800,-0.4412130415439610,-2.975212097167970,-0.1816379427909850,-0.2136332392692570,0.07928946614265440
2022-11-12T02:34:11.670-07:00,0.0116614680737257,-0.4664201438426970,-3.014324426651000,-0.1570626199245450,-0.1999757289886480,0.08634477853775020
2022-11-12T02:34:11.680-07:00,0.05678820610046390,-0.5136265754699710,-3.084439754486080,-0.127938985824585,-0.1467005014419560,0.09481602907180790
2022-11-12T02:34:11.690-07:00,0.1745202988386150,-0.552579402923584,-3.169759273529050,-0.1252024173736570,-0.1305295825004580,0.08495113253593450
2022-11-12T02:34:11.700-07:00,0.34634929895401,-0.5751404166221620,-3.23124098777771,-0.1327818632125850,-0.1145102977752690,0.06518843770027160
2022-11-12T02:34:11.710-07:00,0.5830850601196290,-0.5948996543884280,-3.253636360168460,-0.1340379267930980,-0.09658819437026980,0.05489909648895260
2022-11-12T02:34:11.720-07:00,0.758131206035614,-0.6468371748924260,-3.247537136077880,-0.1254597306251530,-0.03926438093185430,0.03922176361083980
2022-11-12T02:34:11.730-07:00,0.8029776215553280,-0.6940189003944400,-3.276599884033200,-0.1301585882902150,0.02824527025222780,0.02957338094711300
2022-11-12T02:34:11.740-07:00,0.6890015602111820,-0.7272463440895080,-3.255696058273320,-0.1618784368038180,0.02405697107315060,0.01891914010047910
2022-11-12T02:34:11.750-07:00,0.400568038225174,-0.7732856869697570,-3.204101085662840,-0.1927239894866940,0.03190088272094730,0.01862055063247680
2022-11-12T02:34:11.760-07:00,0.03353650867939000,-0.8096849322319030,-3.196497440338140,-0.2091366946697240,0.06471186876297000,0.01928272843360900
2022-11-12T02:34:11.770-07:00,-0.2960090041160580,-0.8264196515083310,-3.207314014434810,-0.2114608287811280,0.07636821269989010,0.02433919906616210
2022-11-12T02:34:11.780-07:00,-0.4832161962985990,-0.861411452293396,-3.149893045425420,-0.1959115564823150,0.06141245365142820,0.04654133319854740
2022-11-12T02:34:11.790-07:00,-0.5607889294624330,-0.9053032994270330,-3.056734323501590,-0.1633249819278720,0.08251219987869260,0.07137152552604680
2022-11-12T02:34:11.800-07:00,-0.4686331748962400,-0.9224788546562200,-2.9843909740448,-0.152491420507431,0.1193857192993160,0.091957688331604
2022-11-12T02:34:11.810-07:00,-0.2568168640136720,-0.9011444449424740,-2.918360710144040,-0.1583623290061950,0.153725266456604,0.07486844062805180
2022-11-12T02:34:11.820-07:00,-0.01739175245165830,-0.8471153378486630,-2.834020614624020,-0.1683032512664800,0.1984807252883910,0.02003055810928350
2022-11-12T02:34:11.830-07:00,0.1692351549863820,-0.7970479130744930,-2.761296510696410,-0.1750696897506710,0.2386417388916020,-0.03842228651046750
2022-11-12T02:34:11.840-07:00,0.2275661081075670,-0.7512778043746950,-2.714314699172970,-0.1762790679931640,0.2400597333908080,-0.06409657001495360
2022-11-12T02:34:11.850-07:00,0.1730347573757170,-0.7039071321487430,-2.653549432754520,-0.1736176013946530,0.2172365784645080,-0.06556174159049990
2022-11-12T02:34:11.860-07:00,0.009793894365429880,-0.6886703968048100,-2.568163633346560,-0.1596019268035890,0.2171151638031010,-0.0621192455291748
2022-11-12T02:34:11.870-07:00,-0.2003695964813230,-0.6833862662315370,-2.508692979812620,-0.1479325890541080,0.2315630316734310,-0.04692292213439940
2022-11-12T02:34:11.880-07:00,-0.3938581049442290,-0.6589184999465940,-2.462014675140380,-0.144631564617157,0.2176907062530520,-0.03199812769889830
2022-11-12T02:34:11.891-07:00,-0.580662727355957,-0.6172555685043340,-2.377010583877560,-0.1361431479454040,0.1859167218208310,-0.01875981688499450
2022-11-12T02:34:11.901-07:00,-0.7230257391929630,-0.601450502872467,-2.284920215606690,-0.1159014701843260,0.1621488332748410,-0.001668691635131840
2022-11-12T02:34:11.911-07:00,-0.8080142140388490,-0.6064034104347230,-2.207164525985720,-0.09086084365844730,0.1588205099105840,0.01255500316619870
2022-11-12T02:34:11.921-07:00,-0.8212791085243230,-0.6125542521476750,-2.152151346206670,-0.08069181442260740,0.1693586111068730,0.02000683546066280
2022-11-12T02:34:11.931-07:00,-0.772594690322876,-0.6180930733680730,-2.099497556686400,-0.08223426342010500,0.1730917096138,0.02007636427879330
2022-11-12T02:34:11.941-07:00,-0.6528956890106200,-0.6238117218017580,-2.06791353225708,-0.08671039342880250,0.1644774675369260,0.004551172256469730
2022-11-12T02:34:11.951-07:00,-0.4967489838600160,-0.6311095356941220,-2.049463510513310,-0.08444744348526000,0.1609206795692440,-0.02956894040107730
2022-11-12T02:34:11.961-07:00,-0.3233111500740050,-0.6402308940887450,-2.023212194442750,-0.0763745903968811,0.1613455414772030,-0.05782994627952580
2022-11-12T02:34:11.971-07:00,-0.1745391041040420,-0.6494322419166570,-2.002142190933230,-0.073192298412323,0.1493918895721440,-0.09259805083274840
2022-11-12T02:34:11.981-07:00,-0.05369976162910460,-0.6503720283508300,-1.983473062515260,-0.07499003410339360,0.1284188032150270,-0.1123071312904360
2022-11-12T02:34:11.991-07:00,0.02373677678406240,-0.6405342221260070,-1.962325930595400,-0.07338380813598630,0.1119229197502140,-0.1110300719738010
2022-11-12T02:34:12.001-07:00,0.08862416446208950,-0.6243696212768560,-1.939011216163640,-0.06637990474700930,0.09268307685852050,-0.09622612595558170
2022-11-12T02:34:12.011-07:00,0.1157876700162890,-0.6242628693580630,-1.905593752861020,-0.0543673038482666,0.0817084014415741,-0.07439064979553220
2022-11-12T02:34:12.021-07:00,0.1148441135883330,-0.6163575649261480,-1.873913049697880,-0.0519176721572876,0.07541579008102420,-0.05209073424339290
2022-11-12T02:34:12.031-07:00,0.1050543636083600,-0.6013876795768740,-1.840769171714780,-0.05897098779678350,0.07258230447769170,-0.03868588805198670
2022-11-12T02:34:12.041-07:00,0.1063553243875500,-0.5804246068000790,-1.809727907180790,-0.06921809911727910,0.08009430766105650,-0.02895542979240420
2022-11-12T02:34:12.051-07:00,0.09222019463777540,-0.5609623789787290,-1.772253751754760,-0.07668328285217290,0.08914428949356080,-0.02157604694366460
2022-11-12T02:34:12.061-07:00,0.07777653634548190,-0.5295162796974180,-1.732955574989320,-0.08328807353973390,0.104376345872879,-0.01538717746734620
2022-11-12T02:34:12.071-07:00,0.08500449359416960,-0.4961563348770140,-1.689489603042600,-0.08265161514282230,0.1154104471206670,-0.01420888304710390
2022-11-12T02:34:12.081-07:00,0.1240424364805220,-0.4693891704082490,-1.633840918540960,-0.08012509346008300,0.1320249438285830,-0.01585191488265990
2022-11-12T02:34:12.091-07:00,0.1698445826768880,-0.4396954774856570,-1.569448351860050,-0.07212185859680180,0.1515242457389830,-0.02369916439056400
2022-11-12T02:34:12.101-07:00,0.1987476050853730,-0.4129283130168920,-1.488773226737980,-0.06936514377593990,0.1600176692008970,-0.03084772825241090
2022-11-12T02:34:12.111-07:00,0.2263755649328230,-0.3978394269943240,-1.408129572868350,-0.06971335411071780,0.1634986996650700,-0.03520283102989200
2022-11-12T02:34:12.121-07:00,0.2485477030277250,-0.3808900117874150,-1.329538106918340,-0.06673192977905270,0.1672148704528810,-0.03548067808151250
2022-11-12T02:34:12.131-07:00,0.273938924074173,-0.364690363407135,-1.243903636932370,-0.06451016664505010,0.171943724155426,-0.03125512599945070
2022-11-12T02:34:12.141-07:00,0.2758193612098690,-0.3536526262760160,-1.144628405570980,-0.06097674369812010,0.1690415740013120,-0.02585124969482420
2022-11-12T02:34:12.151-07:00,0.2317926585674290,-0.3434677720069890,-1.035515308380130,-0.06378144025802610,0.1669225990772250,-0.0235770046710968
2022-11-12T02:34:12.161-07:00,0.1764399260282520,-0.3317613303661350,-0.9436995983123780,-0.06409579515457150,0.1578547656536100,-0.02226781845092770
2022-11-12T02:34:12.172-07:00,0.1152903512120250,-0.3106070756912230,-0.8513003587722780,-0.059315025806427,0.1578004956245420,-0.02241228520870210
2022-11-12T02:34:12.181-07:00,0.05184187740087510,-0.2884809970855710,-0.7606112360954290,-0.04554182291030880,0.1692560911178590,-0.02154384553432470
2022-11-12T02:34:12.191-07:00,0.004484949633479120,-0.2704649269580840,-0.6752968430519100,-0.03307700157165530,0.1727209985256200,-0.01748090982437130
2022-11-12T02:34:12.202-07:00,-0.02845941670238970,-0.2567741572856900,-0.6001624464988710,-0.01931488513946530,0.1696268618106840,-0.01408413052558900
2022-11-12T02:34:12.212-07:00,-0.04451102018356320,-0.2416349500417710,-0.5301244854927060,-0.00778651237487793,0.1699559688568120,-0.01085561513900760
2022-11-12T02:34:12.222-07:00,-0.04290646687150000,-0.2371451258659360,-0.4668049216270450,0.005405783653259280,0.1726170778274540,-0.01224601268768310
2022-11-12T02:34:12.232-07:00,-0.05484241992235180,-0.2314212471246720,-0.4127611219882970,0.005887091159820560,0.1703584939241410,-0.01639829576015470
2022-11-12T02:34:12.242-07:00,-0.07882152497768400,-0.2200045436620710,-0.3624066114425660,0.0003080964088439940,0.1600503623485570,-0.02371543645858770
2022-11-12T02:34:12.252-07:00,-0.09571518003940580,-0.2156344056129460,-0.3271596729755400,-0.003124654293060300,0.1530902683734890,-0.03203064203262330
2022-11-12T02:34:12.262-07:00,-0.1054386496543880,-0.2103663980960850,-0.2974396049976350,0.001086115837097170,0.1547776162624360,-0.0339474081993103
2022-11-12T02:34:12.272-07:00,-0.1203425377607350,-0.1917135864496230,-0.2578668892383580,0.007454216480255130,0.1584363728761670,-0.03572075068950650
2022-11-12T02:34:12.282-07:00,-0.1489744484424590,-0.1843550056219100,-0.2187258750200270,0.01327872276306150,0.1635866761207580,-0.03229823708534240
2022-11-12T02:34:12.292-07:00,-0.173445001244545,-0.1759334653615950,-0.1876324117183690,0.015422523021698,0.1639362275600430,-0.0306972861289978
2022-11-12T02:34:12.302-07:00,-0.2042404562234880,-0.1546803712844850,-0.1495790332555770,0.0167730450630188,0.1645520925521850,-0.02928459644317630
2022-11-12T02:34:12.312-07:00,-0.2387019395828250,-0.1423918455839160,-0.1065836325287820,0.01853913068771360,0.1653493940830230,-0.0276925265789032
2022-11-12T02:34:12.322-07:00,-0.2474237829446790,-0.1371677964925770,-0.06754328310489660,0.01844161748886110,0.1622592359781270,-0.03064148128032680
2022-11-12T02:34:12.332-07:00,-0.2400840520858770,-0.1167398169636730,-0.01923780515789990,0.01603162288665770,0.1550429463386540,-0.03405174612998960
2022-11-12T02:34:12.342-07:00,-0.2739213705062870,-0.077683225274086,0.02698801457881930,0.01533389091491700,0.1503461301326750,-0.03794735670089720
2022-11-12T02:34:12.352-07:00,-0.3398820757865910,-0.04466612264513970,0.07677740603685380,0.02146989107131960,0.1297230422496800,-0.04490071535110470
2022-11-12T02:34:12.362-07:00,-0.4376485347747800,-0.07137230038642880,0.1295718997716900,0.03030472993850710,0.1072859317064290,-0.04354342818260190
2022-11-12T02:34:12.372-07:00,-0.5137537121772770,-0.08026991784572600,0.1498231142759320,0.01214480400085450,0.08631323277950290,-0.03980861604213720
2022-11-12T02:34:12.382-07:00,-0.5658920407295230,-0.03363504260778430,0.1535427570343020,-0.02308309078216550,0.06965777277946470,-0.04514604806900020
2022-11-12T02:34:12.392-07:00,-0.5787709355354310,0.0209037009626627,0.1602728366851810,-0.03382205963134770,0.06736975908279420,-0.04741650819778440
2022-11-12T02:34:12.402-07:00,-0.5754653811454770,0.04749642685055730,0.173397958278656,-0.003336668014526370,0.07199043035507200,-0.05057677626609800
2022-11-12T02:34:12.412-07:00,-0.5583334565162660,0.03644900396466260,0.1964982151985170,0.03926783800125120,0.07205012440681460,-0.05238062143325810
2022-11-12T02:34:12.422-07:00,-0.5478552579879760,0.007958506233990190,0.2236688435077670,0.05886960029602050,0.06670962274074550,-0.04928408563137050
2022-11-12T02:34:12.432-07:00,-0.5120495557785030,-0.003221743041649460,0.2324588745832440,0.04234528541564940,0.0671345591545105,-0.04664009809494020
2022-11-12T02:34:12.442-07:00,-0.4218013882637020,0.01429226994514470,0.2245522141456600,0.01422315835952760,0.07435458898544310,-0.04689380526542660
2022-11-12T02:34:12.452-07:00,-0.3200985789299010,0.02260169759392740,0.2338783442974090,0.005798161029815670,0.08559621870517730,-0.05166517198085790
2022-11-12T02:34:12.462-07:00,-0.2396064102649690,0.01517787016928200,0.235228031873703,0.009753048419952390,0.0827305018901825,-0.05966982245445250
2022-11-12T02:34:12.472-07:00,-0.1921040415763860,0.0123087465763092,0.2246480882167820,0.01069056987762450,0.05802622437477110,-0.06657993793487550
2022-11-12T02:34:12.482-07:00,-0.1692423969507220,0.003204198554158210,0.2340607643127440,0.01797163486480710,0.02612531185150150,-0.07910537719726560
2022-11-12T02:34:12.493-07:00,-0.1555511802434920,-0.01128596067428590,0.2208469659090040,0.02326905727386480,0.01143708825111390,-0.0862567126750946
2022-11-12T02:34:12.503-07:00,-0.1615062803030010,0.01032425928860900,0.199197068810463,0.01827573776245120,-0.005865901708602910,-0.0891251266002655
2022-11-12T02:34:12.513-07:00,-0.1956873834133150,0.03634117916226390,0.1851984262466430,0.007778942584991460,-0.01043719053268430,-0.08750346302986150
2022-11-12T02:34:12.523-07:00,-0.2327519357204440,0.07050846517086030,0.1523041278123860,0.001378238201141360,-0.005820035934448240,-0.08084659278392790
2022-11-12T02:34:12.533-07:00,-0.2987515032291410,0.1079544126987460,0.117651604115963,-0.0007895231246948240,0.0001073777675628660,-0.07898691296577450
2022-11-12T02:34:12.543-07:00,-0.4191969335079190,0.1666350364685060,0.1067057475447660,-0.01112037897109990,0.005579710006713870,-0.09330843389034270
2022-11-12T02:34:12.553-07:00,-0.6099968552589420,0.2341340184211730,0.1282059699296950,-0.03521138429641720,-0.0006030499935150150,-0.1102494597435000
2022-11-12T02:34:12.563-07:00,-0.8550827503204350,0.3185796439647680,0.1753473877906800,-0.06111317873001100,0.02573427557945250,-0.09378737211227420
2022-11-12T02:34:12.573-07:00,-1.123803853988650,0.3988174200057980,0.2589996755123140,-0.07671564817428590,0.101084291934967,-0.07694318890571590
2022-11-12T02:34:12.583-07:00,-1.273617267608640,0.4277715682983400,0.3715661466121670,-0.0795905590057373,0.1929540634155270,-0.06263792514801030
2022-11-12T02:34:12.593-07:00,-1.269856452941900,0.4461645483970640,0.4868780970573430,-0.06454646587371830,0.2900722026824950,-0.05047714710235600
2022-11-12T02:34:12.603-07:00,-1.152191638946530,0.5009335279464720,0.615358293056488,-0.037975013256073,0.3868087828159330,-0.08305776119232180
2022-11-12T02:34:12.613-07:00,-0.8848430514335630,0.5209482312202450,0.8072063326835630,-0.01321792602539060,0.4699559211730960,-0.1509618163108830
2022-11-12T02:34:12.623-07:00,-0.4735316634178160,0.5306730270385740,1.003844499588010,0.01166260242462160,0.5979089736938480,-0.1764829605817800
2022-11-12T02:34:12.633-07:00,0.0328172892332077,0.6591295003890990,1.213339686393740,0.01684355735778810,0.724088191986084,-0.2245258986949920
2022-11-12T02:34:12.643-07:00,0.517284631729126,0.814316987991333,1.605861902236940,0.02634948492050170,0.86927330493927,-0.2522282004356380
2022-11-12T02:34:12.653-07:00,0.889031708240509,0.8978316783905030,2.107711315155030,0.05538439750671390,1.105397462844850,-0.2153914123773580
2022-11-12T02:34:12.663-07:00,1.018118381500240,1.000070452690130,2.628476858139040,0.05480986833572390,1.411924839019780,-0.2629033327102660
2022-11-12T02:34:12.673-07:00,0.9940080046653750,1.133814811706540,3.316623687744140,-0.03179872035980230,1.641756296157840,-0.3579946458339690
2022-11-12T02:34:12.683-07:00,0.6238943934440610,1.342320322990420,4.225739002227780,-0.1867625117301940,1.847720265388490,-0.3656056821346280
2022-11-12T02:34:12.693-07:00,0.04629681259393690,1.643273591995240,5.274281978607180,-0.4261619448661800,1.966596961021420,-0.3353380262851720
2022-11-12T02:34:12.703-07:00,-0.5480688214302060,1.910373687744140,6.445966720581060,-0.6555630564689640,1.982399344444280,-0.2006988525390630
2022-11-12T02:34:12.713-07:00,-0.9554545283317570,2.094272375106810,7.386641502380370,-0.7946364879608150,2.120779991149900,-0.1854962110519410
2022-11-12T02:34:12.723-07:00,-0.9709810018539430,2.087268590927120,8.116898536682130,-0.9169811010360720,2.25028133392334,-0.2777301967144010
2022-11-12T02:34:12.733-07:00,-0.4504530727863310,1.889627456665040,8.56649112701416,-1.069508194923400,2.251055240631100,-0.3100149631500240
2022-11-12T02:34:12.743-07:00,0.3812625110149380,1.700563788414000,8.824278831481930,-1.273089051246640,2.099595546722410,-0.3025333881378170
2022-11-12T02:34:12.753-07:00,1.073450803756710,1.631717920303350,8.914344787597660,-1.54714035987854,1.762469410896300,-0.2335113883018490
2022-11-12T02:34:12.763-07:00,1.289512515068050,1.578249335289000,8.912205696105960,-1.770291328430180,1.207666635513310,-0.07982301712036130
2022-11-12T02:34:12.773-07:00,1.236771941185000,1.443195819854740,8.907646179199220,-1.796287298202520,0.5723642706871030,0.1685591340065000
2022-11-12T02:34:12.784-07:00,0.9885890483856200,1.248887658119200,8.811114311218260,-1.671268343925480,0.04281282424926760,0.4079765379428860
2022-11-12T02:34:12.794-07:00,0.6850988864898680,1.022470474243160,8.476091384887700,-1.556179404258730,-0.344971776008606,0.5359858870506290
2022-11-12T02:34:12.804-07:00,0.2920631766319280,0.8657160401344300,8.146761894226070,-1.520747780799870,-0.6637688875198360,0.5793042182922360
2022-11-12T02:34:12.814-07:00,-0.1037428230047230,0.6994163393974300,7.81257963180542,-1.542474150657650,-0.8280473351478580,0.5810441970825200
2022-11-12T02:34:12.824-07:00,-0.4065764546394350,0.5264940857887270,7.233304977416990,-1.578029751777650,-0.9052055478096010,0.5534330606460570
2022-11-12T02:34:12.834-07:00,-0.5265344977378850,0.4067135751247410,6.594610214233400,-1.615753889083860,-0.9899619817733770,0.4994825422763820
2022-11-12T02:34:12.844-07:00,-0.5449992418289190,0.2976592481136320,6.075273513793950,-1.593798875808720,-1.114214420318600,0.4010473489761350
2022-11-12T02:34:12.854-07:00,-0.4720302224159240,0.1475794911384580,5.52833890914917,-1.482350468635560,-1.153812885284420,0.3161883652210240
2022-11-12T02:34:12.864-07:00,-0.3276669383049010,0.01900206878781320,5.006248474121090,-1.332056879997250,-1.173443794250490,0.2510178685188290
2022-11-12T02:34:12.874-07:00,-0.2684707641601560,-0.1077348068356510,4.609312534332280,-1.174041509628300,-1.134171009063720,0.2013712525367740
2022-11-12T02:34:12.884-07:00,-0.2261091768741610,-0.2153483480215070,4.17965841293335,-1.033470511436460,-1.069921255111690,0.1763174533843990
2022-11-12T02:34:12.894-07:00,-0.1656391769647600,-0.2774532735347750,3.708807468414310,-0.9288821816444400,-1.055376291275020,0.1626045703887940
2022-11-12T02:34:12.904-07:00,-0.1309656202793120,-0.3067757487297060,3.261507987976070,-0.8341447710990910,-1.043800115585330,0.1501825451850890
2022-11-12T02:34:12.914-07:00,-0.05981720611453060,-0.3407892882823940,2.853426694870000,-0.7368899583816530,-1.030161499977110,0.1161675453186040
2022-11-12T02:34:12.924-07:00,0.03665021061897280,-0.4006246626377110,2.462899684906010,-0.6354859471321110,-0.963953971862793,0.102857768535614
2022-11-12T02:34:12.934-07:00,0.2543391287326810,-0.3962900936603550,2.031129360198980,-0.5462135076522830,-0.9243525862693790,0.09721684455871580
2022-11-12T02:34:12.944-07:00,0.3966043889522550,-0.3697271943092350,1.722726225852970,-0.4639773070812230,-0.8477097749710080,0.07396665215492250
2022-11-12T02:34:12.954-07:00,0.4651074409484860,-0.3587860465049740,1.408785820007320,-0.3877719044685360,-0.7092271447181700,0.04555201530456540
2022-11-12T02:34:12.964-07:00,0.4744753837585450,-0.3235244452953340,1.107320547103880,-0.3363731801509860,-0.6522961258888250,0.01679736375808720
2022-11-12T02:34:12.974-07:00,0.3394842743873600,-0.3093452155590060,0.9063574075698850,-0.2962620854377750,-0.5970684289932250,-0.01313912868499760
2022-11-12T02:34:12.984-07:00,0.1427040696144100,-0.3409430980682370,0.7192913889884950,-0.2617431879043580,-0.5402804613113400,-0.02401560544967650
2022-11-12T02:34:12.994-07:00,-0.07233130186796190,-0.3531390130519870,0.579721212387085,-0.241774320602417,-0.5141333937644960,-0.02068865299224850
2022-11-12T02:34:13.004-07:00,-0.296862930059433,-0.3500622510910030,0.4749186635017400,-0.2229634523391720,-0.4383674263954160,-0.00921785831451416
2022-11-12T02:34:13.014-07:00,-0.4150768518447880,-0.3310377895832060,0.2950998842716220,-0.2030918598175050,-0.3508323431015020,-0.01148414611816410
2022-11-12T02:34:13.024-07:00,-0.3506810665130620,-0.3001635074615480,0.1193509697914120,-0.1854895949363710,-0.2852211594581600,-0.02963179349899290
2022-11-12T02:34:13.034-07:00,-0.1438794583082200,-0.2677094042301180,0.01847335509955880,-0.1512789130210880,-0.2192510366439820,-0.04602313041687010
2022-11-12T02:34:13.044-07:00,0.08975647389888760,-0.2383917272090910,-0.0502745509147644,-0.1173855662345890,-0.1173034310340880,-0.04644021391868590
2022-11-12T02:34:13.054-07:00,0.3041773438453670,-0.1997201442718510,-0.1443083733320240,-0.101385235786438,-0.04450321197509770,-0.0342402458190918
2022-11-12T02:34:13.064-07:00,0.3591785430908200,-0.1326934397220610,-0.1902281939983370,-0.1013797521591190,-0.02767431735992430,-0.02119308710098270
2022-11-12T02:34:13.075-07:00,0.1663131713867190,-0.07911697030067440,-0.1887405514717100,-0.09053856134414670,-0.04906761646270750,-0.02164065837860110
2022-11-12T02:34:13.085-07:00,-0.1975923478603360,-0.08267095685005190,-0.1758479177951810,-0.05529528856277470,-0.08247745037078860,-0.02314895391464230
2022-11-12T02:34:13.095-07:00,-0.5392475128173830,-0.1218507587909700,-0.1797960549592970,-0.01678252220153810,-0.1082563400268560,-0.02399158477783200
2022-11-12T02:34:13.105-07:00,-0.7167008519172670,-0.1700851321220400,-0.1658871620893480,0.008324563503265380,-0.1047356724739080,-0.01702126860618590
2022-11-12T02:34:13.115-07:00,-0.6466553807258610,-0.1904536187648770,-0.1763395369052890,0.02150088548660280,-0.0563928484916687,0.008513092994689940
2022-11-12T02:34:13.125-07:00,-0.438877671957016,-0.1670095473527910,-0.2157745659351350,0.01658818125724790,0.01805651187896730,0.01214566826820370
2022-11-12T02:34:13.135-07:00,-0.1665880680084230,-0.1384937763214110,-0.2395733594894410,-0.001565605401992800,0.06692862510681150,-0.003781497478485110
2022-11-12T02:34:13.145-07:00,0.0555238351225853,-0.1024124771356580,-0.2554255723953250,-0.01262116432189940,0.08750826120376590,-0.01839786767959600
2022-11-12T02:34:13.155-07:00,0.1861225962638860,-0.08309496939182280,-0.2525964975357060,-0.01615732908248900,0.08330267667770390,-0.03880089521408080
2022-11-12T02:34:13.165-07:00,0.1592696756124500,-0.09314094483852390,-0.2275556027889250,-0.01643010973930360,0.0770186185836792,-0.04193708300590520
2022-11-12T02:34:13.175-07:00,-0.02458345331251620,-0.09248907119035720,-0.1976211369037630,-0.02434492111206060,0.06925934553146360,-0.02916121482849120
2022-11-12T02:34:13.185-07:00,-0.3047626316547390,-0.08307879418134690,-0.1811311095952990,-0.0349067747592926,0.02981418371200560,-0.008736938238143920
2022-11-12T02:34:13.195-07:00,-0.6612581610679630,-0.07639671862125400,-0.152612641453743,-0.0300179123878479,-0.02201604843139650,0.02631855010986330
2022-11-12T02:34:13.205-07:00,-0.938141942024231,-0.1032019704580310,-0.1088600978255270,-0.01348471641540530,-0.0605614185333252,0.03254014253616330
2022-11-12T02:34:13.215-07:00,-1.003522992134090,-0.1724013537168500,-0.09337301552295690,0.01849213242530820,-0.05970883369445800,0.02943310141563420
2022-11-12T02:34:13.225-07:00,-0.7736937999725340,-0.1833967417478560,-0.1021643728017810,0.04227423667907720,0.005609750747680660,0.01985204219818120
2022-11-12T02:34:13.235-07:00,-0.4080788791179660,-0.1364693492650990,-0.1048038378357890,0.03056380152702330,0.0784112811088562,-0.01114839315414430
2022-11-12T02:34:13.245-07:00,-0.02107470482587810,-0.07870431244373320,-0.1086337342858320,0.002660244703292850,0.1015479564666750,-0.03541028499603270
2022-11-12T02:34:13.255-07:00,0.2500452995300290,-0.0141973290592432,-0.1301542073488240,-0.01482155919075010,0.07232463359832760,-0.05320227146148680
2022-11-12T02:34:13.265-07:00,0.3842731714248660,0.01369369029998780,-0.1421962082386020,-0.01291674375534060,0.03485071659088140,-0.0696418285369873
2022-11-12T02:34:13.275-07:00,0.3811424970626830,0.005232928320765500,-0.1465800553560260,0.006950587034225460,0.0128445029258728,-0.06614485383033750
2022-11-12T02:34:13.285-07:00,0.2673123478889470,0.01224449928849940,-0.1487987339496610,0.01295813918113710,0.01581132411956790,-0.05856186151504520
2022-11-12T02:34:13.295-07:00,0.07621033489704130,0.0357053168118,-0.1565969884395600,-0.0016898512840271,-0.007026553153991700,-0.05146840214729310
2022-11-12T02:34:13.305-07:00,-0.1089368760585790,0.03055689483881000,-0.1368507146835330,-0.006135791540145870,-0.05408793687820440,-0.04410657286643980
2022-11-12T02:34:13.315-07:00,-0.2098984122276310,0.0005092788487672810,-0.1310636699199680,0.008304387331008910,-0.07248198986053470,-0.0391266942024231
2022-11-12T02:34:13.325-07:00,-0.2138537466526030,-0.01069197617471220,-0.1298644542694090,0.02497625350952150,-0.04730349779129030,-0.0309147834777832
2022-11-12T02:34:13.335-07:00,-0.1069169119000440,-0.008795806206762790,-0.1343801021575930,0.0187230110168457,-0.001072466373443600,-0.03693962097167970
2022-11-12T02:34:13.345-07:00,0.04574640095233920,0.01538143586367370,-0.1711117625236510,0.00143355131149292,0.033588707447052,-0.04513853788375850
2022-11-12T02:34:13.355-07:00,0.1917379647493360,0.06092016026377680,-0.2020220011472700,-0.01645505428314210,0.0348551869392395,-0.05447733402252200
2022-11-12T02:34:13.365-07:00,0.2669538855552670,0.07860461622476580,-0.1861002892255780,-0.02256438136100770,-0.003732800483703610,-0.04884999990463260
2022-11-12T02:34:13.376-07:00,0.2768010497093200,0.06721653789281850,-0.1784599423408510,-0.02040880918502810,-0.03291940689086910,-0.03278589248657230
2022-11-12T02:34:13.386-07:00,0.2280697375535970,0.08079839497804640,-0.1931185126304630,-0.0247688889503479,-0.03890502452850340,-0.006334304809570310
2022-11-12T02:34:13.396-07:00,0.1456242650747300,0.1185807883739470,-0.2107888609170910,-0.02888390421867370,-0.03943747282028200,0.01199683547019960
2022-11-12T02:34:13.406-07:00,0.05885607749223710,0.1142449006438260,-0.224696159362793,-0.0153287947177887,-0.04885900020599370,0.02232599258422850
2022-11-12T02:34:13.416-07:00,-0.01220487989485260,0.08772311359643940,-0.2569856643676760,0.007698088884353640,-0.05496120452880860,0.02464967966079710
2022-11-12T02:34:13.426-07:00,-0.03838428854942320,0.05461975187063220,-0.2596826553344730,0.01785176992416380,-0.05076867341995240,0.0190950334072113
2022-11-12T02:34:13.436-07:00,-0.008947001770138740,0.02972954697906970,-0.2793841660022740,0.01060715317726140,-0.01894015073776250,0.01283732056617740
2022-11-12T02:34:13.446-07:00,0.07298994064331060,0.03660823032259940,-0.3030734956264500,-0.01157400012016300,-0.005531907081604000,0.003971874713897710
2022-11-12T02:34:13.456-07:00,0.1417804509401320,0.05330571532249450,-0.3036575317382810,-0.02888932824134830,-0.001336097717285160,-0.006156444549560550
2022-11-12T02:34:13.466-07:00,0.1810663342475890,0.04440836235880850,-0.2995879650115970,-0.03761366009712220,-0.01065671443939210,-0.01703402400016790
2022-11-12T02:34:13.476-07:00,0.2168176770210270,0.03750544786453250,-0.3044674098491670,-0.04187273979187010,-0.03286826610565190,-0.01631438732147220
2022-11-12T02:34:13.486-07:00,0.2211684882640840,0.04862494394183160,-0.3052628934383390,-0.04548415541648870,-0.04771798849105840,-0.005995839834213260
2022-11-12T02:34:13.496-07:00,0.197568878531456,0.06073540076613430,-0.3319070339202880,-0.04525426030159000,-0.04652178287506100,-0.0002072751522064210
2022-11-12T02:34:13.506-07:00,0.1462937146425250,0.07175529003143310,-0.3628236651420590,-0.04018625617027280,-0.0577242374420166,0.003144025802612310
2022-11-12T02:34:13.516-07:00,0.0638069361448288,0.08454981446266170,-0.3896201550960540,-0.03579980134963990,-0.07226955890655520,0.003892123699188230
2022-11-12T02:34:13.526-07:00,-0.01281221397221090,0.07605326920747760,-0.4210134744644170,-0.02892979979515080,-0.09463882446289060,-0.003226816654205320
2022-11-12T02:34:13.536-07:00,-0.05176274478435520,0.05550984665751460,-0.4581032991409300,-0.02991822361946110,-0.09615707397460940,-0.006152808666229250
