loggingTime(txt),motionRotationRateX(rad/s),motionRotationRateY(rad/s),motionRotationRateZ(rad/s),motionUserAccelerationX(G),motionUserAccelerationY(G),motionUserAccelerationZ(G)
2022-11-10T02:47:42.490-07:00,-0.03123810701072220,0.004083757288753990,-0.002587771974503990,0.002572245895862580,-0.008224859833717350,0.00914686918258667
2022-11-10T02:47:42.494-07:00,-0.0456860214471817,0.0159904845058918,-0.0128742316737771,-0.005787793546915050,-0.003671839833259580,0.004813849925994870
2022-11-10T02:47:42.495-07:00,-0.05637854337692260,0.03219761699438100,-0.01695605926215650,-0.01793646812438970,-0.006821960210800170,-0.000362098217010498
2022-11-10T02:47:42.496-07:00,-0.05805234611034390,0.03324317559599880,-0.01728762313723560,-0.01286133751273160,-0.006938986480236050,-0.0004243254661560060
2022-11-10T02:47:42.497-07:00,-0.04892372712492940,0.02596225775778290,-0.01722823455929760,-0.0009752998594194650,-0.003110162913799290,0.001734018325805660
2022-11-10T02:47:42.503-07:00,-0.02838622778654100,0.01498710550367830,-0.01521461736410860,0.006978098303079610,0.001623854041099550,-0.002870857715606690
2022-11-10T02:47:42.513-07:00,-0.00748277734965086,0.009619204327464100,-0.008092791773378850,0.0104762576520443,0.005458734929561620,-0.003605842590332030
2022-11-10T02:47:42.523-07:00,0.005898009985685350,0.007287606596946720,-6.54920004308224E-05,0.008245445787906650,0.005651891231536870,-0.003293335437774660
2022-11-10T02:47:42.533-07:00,0.002805048599839210,0.00028452486731112,-0.0001565725542604920,0.01102320104837420,0.007204122841358190,-0.001897573471069340
2022-11-10T02:47:42.543-07:00,0.01038973219692710,-0.01486326940357690,-0.003711093449965120,0.01550270989537240,0.00710548460483551,0.002078652381896970
2022-11-10T02:47:42.553-07:00,0.006033498793840410,-0.02192959934473040,-0.008648593910038470,0.01571928709745410,0.005392946302890780,0.004281401634216310
2022-11-10T02:47:42.563-07:00,0.0006541796028614040,-0.02612514421343800,-0.006875727791339160,0.01427963748574260,0.004465393722057340,0.00316309928894043
2022-11-10T02:47:42.573-07:00,0.009638020768761640,-0.02944124676287170,-0.003176330588757990,0.01348860189318660,-0.0007585138082504270,-0.001221239566802980
2022-11-10T02:47:42.583-07:00,0.008148249238729480,-0.02865002118051050,-0.001886827871203420,0.008956026285886770,-0.002713955938816070,0.0002205371856689450
2022-11-10T02:47:42.593-07:00,0.009458756074309350,-0.02535113133490090,-0.0006937319412827490,0.006814643740653990,-9.83625650405884E-05,-0.004652082920074460
2022-11-10T02:47:42.603-07:00,0.00548984669148922,-0.01883304305374620,-0.0008535212837159630,0.003388728946447370,-0.0009425356984138490,-0.00400012731552124
2022-11-10T02:47:42.613-07:00,0.00680338591337204,-0.0102263055741787,-0.0009342152625322340,0.002889815717935560,-0.001355573534965520,-0.002827465534210210
2022-11-10T02:47:42.623-07:00,0.0003763791173696520,-0.01227134745568040,0.0003539556637406350,0.0007255598902702330,-0.000815369188785553,-0.003392517566680910
2022-11-10T02:47:42.633-07:00,-0.0111231179907918,-0.01471136882901190,-0.001122500747442250,0.002023708075284960,-0.0009241402149200440,-0.0006562471389770510
2022-11-10T02:47:42.643-07:00,-0.01128903310745960,-0.01413559354841710,0.001885539852082730,0.0006888657808303830,-0.005166202783584600,0.00153648853302002
2022-11-10T02:47:42.653-07:00,0.003432488068938260,-0.01015799585729840,0.006632091011852030,-0.001632470637559890,-0.003897503018379210,0.006284177303314210
2022-11-10T02:47:42.663-07:00,0.01295621879398820,-0.004709967412054540,0.007214258890599010,-0.004487339407205580,0.00410248339176178,0.01059621572494510
2022-11-10T02:47:42.674-07:00,0.008432473987340930,-0.007982891984283920,0.002214173786342140,-0.003658328205347060,0.005991443991661070,0.008284032344818120
2022-11-10T02:47:42.684-07:00,0.009475102648139,-0.009002616629004480,0.003631241619586950,-0.002481106668710710,0.0003825128078460690,0.005362033843994140
2022-11-10T02:47:42.694-07:00,0.004796793684363370,-0.01487015932798390,0.005278406664729120,-0.001227002590894700,-0.001945182681083680,0.002488076686859130
2022-11-10T02:47:42.704-07:00,-0.007753352634608750,-0.01866383291780950,0.004661618731915950,0.0002703815698623660,0.0005624890327453610,-0.003019511699676510
2022-11-10T02:47:42.714-07:00,-0.017124118283391,-0.0129325445741415,0.00478012952953577,0.001183606684207920,-0.004089005291461950,-0.00632011890411377
2022-11-10T02:47:42.724-07:00,-0.01676272787153720,-0.01000120304524900,0.00158779788762331,0.002402987331151960,-0.0005380064249038700,-0.008108437061309810
2022-11-10T02:47:42.740-07:00,-0.009294323623180390,-0.004150603897869590,0.003244017716497180,0.0003527477383613590,0.003809139132499700,-0.006499052047729490
2022-11-10T02:47:42.744-07:00,0.008704382926225660,0.003043926088139420,0.006883494090288880,-0.0006798170506954190,0.006797805428504940,-0.007092833518981930
2022-11-10T02:47:42.754-07:00,0.01442278735339640,-8.37570987641811E-05,0.004052287433296440,-7.95870873844251E-05,0.007779128849506380,-0.006489932537078860
2022-11-10T02:47:42.764-07:00,0.0194013025611639,-0.002978879492729900,0.004951104056090120,4.38019924331456E-05,0.005070626735687260,-0.003298044204711910
2022-11-10T02:47:42.774-07:00,0.01549108140170570,-0.0022359574213624,0.004297564271837470,0.001286190003156660,0.004360832273960110,0.002257704734802250
2022-11-10T02:47:42.784-07:00,0.007891485467553140,-0.003416270250454550,-0.0003102365881204610,-0.0004518031782936310,-0.0004998371005058290,0.003683149814605710
2022-11-10T02:47:42.794-07:00,0.0004876311868429180,-0.005869840271770950,-0.007387320976704360,-0.0005720928311347960,-0.007614195346832280,0.006547272205352780
2022-11-10T02:47:42.804-07:00,0.003788087517023090,-0.006886901799589400,-0.006704752799123530,0.0004377476871013640,-0.009606868028640750,0.01051408052444460
2022-11-10T02:47:42.814-07:00,0.003763588145375250,-0.008279202505946160,-0.01066007930785420,0.00162041187286377,-0.007255569100379940,0.01000922918319700
2022-11-10T02:47:42.824-07:00,0.01075971312820910,-0.008662431500852110,-0.0116129582747817,-0.00174824520945549,-0.008469454944133760,0.006389915943145750
2022-11-10T02:47:42.834-07:00,0.007263612002134320,-0.01100717857480050,-0.01120016910135750,-0.001844432204961780,-0.01073341816663740,0.004433572292327880
2022-11-10T02:47:42.844-07:00,-0.002393275499343870,-0.01025350391864780,-0.008795334026217460,-0.004533957690000530,-0.01119232177734380,0.0007855892181396480
2022-11-10T02:47:42.854-07:00,-0.02225553058087830,-0.008466389030218120,-0.007577736862003800,-0.00334852933883667,-0.009436175227165220,-0.003201663494110110
2022-11-10T02:47:42.864-07:00,-0.03541341051459310,-0.006930544506758450,-0.0144116748124361,-0.004503894597291950,-0.01419728994369510,-0.002142608165740970
2022-11-10T02:47:42.874-07:00,-0.04711916670203210,0.0003362568095326420,-0.01208407152444120,-0.003721736371517180,-0.0149603933095932,-0.003577828407287600
2022-11-10T02:47:42.884-07:00,-0.04889070242643360,0.007593104150146250,-0.01262868754565720,-0.005815412849187850,-0.00705999881029129,-0.004931747913360600
2022-11-10T02:47:42.894-07:00,-0.04424648359417920,0.01542606111615900,-0.01071627251803880,-0.007007986307144170,-0.001343593001365660,-0.004516899585723880
2022-11-10T02:47:42.904-07:00,-0.03809617832303050,0.02189860865473750,-0.01168140210211280,-0.008211515843868260,0.002369076013565060,-0.004550158977508550
2022-11-10T02:47:42.914-07:00,-0.03405569866299630,0.02559061348438260,-0.01322097517549990,-0.005699340254068380,0.004268519580364230,-0.001278400421142580
2022-11-10T02:47:42.925-07:00,-0.03355981782078740,0.02480231784284120,-0.01372910663485530,-0.005268879234790800,0.004657290875911710,-0.0003402233123779300
2022-11-10T02:47:42.935-07:00,-0.02672631293535230,0.01808119937777520,-0.01936355605721470,-3.54573276126757E-05,0.00261620432138443,0.002484440803527830
2022-11-10T02:47:42.945-07:00,-0.02370176091790200,0.006111088208854200,-0.01732011325657370,0.003859154880046840,0.003232017159461980,0.003410995006561280
2022-11-10T02:47:42.955-07:00,-0.0168093666434288,-0.002096640877425670,-0.01228567305952310,0.006070554256439210,0.002424143254756930,0.004654943943023680
2022-11-10T02:47:42.965-07:00,-0.00662330724298954,-0.008287425152957440,-0.01458904147148130,0.006586097180843350,-0.002895846962928770,0.008032500743865970
2022-11-10T02:47:42.975-07:00,-0.01502940803766250,-0.008561897091567520,-0.01377331465482710,0.005216669291257860,-0.003194078803062440,0.01013046503067020
2022-11-10T02:47:42.985-07:00,-0.02686316519975660,-0.01226981543004510,-0.01492140349000690,0.00320790708065033,-0.007823415100574490,0.006758332252502440
2022-11-10T02:47:42.995-07:00,-0.03192929551005360,-0.007978131994605060,-0.0130862183868885,0.0007362738251686100,-0.009667709469795230,0.00206601619720459
2022-11-10T02:47:43.005-07:00,-0.03778558969497680,-0.006128300447016950,-0.01240844465792180,0.000996273010969162,-0.009099878370761870,-0.005795776844024660
2022-11-10T02:47:43.015-07:00,-0.03850703686475750,0.0004766052588820460,-0.01235065422952180,0.002497054636478420,-0.009070128202438350,-0.007902562618255620
2022-11-10T02:47:43.025-07:00,-0.04622887074947360,0.007894307374954220,-0.01254666224122050,-0.0001725368056213480,-0.005657710134983060,-0.005871772766113280
2022-11-10T02:47:43.035-07:00,-0.05730625987052920,0.01482435315847400,-0.01778696477413180,-8.93287360668182E-05,-0.001693174242973330,-0.005499005317687990
2022-11-10T02:47:43.045-07:00,-0.07100556045770650,0.0130821131169796,-0.01759308576583860,-0.000545792281627655,-0.003249421715736390,-0.002403020858764650
2022-11-10T02:47:43.055-07:00,-0.06779195368289950,0.01065707206726070,-0.01407052390277390,0.0007076561450958250,-0.007040150463581090,-0.001181542873382570
2022-11-10T02:47:43.065-07:00,-0.0567728616297245,0.01521666906774040,-0.01356958225369450,-0.001775611191987990,-0.003223694860935210,0.003709733486175540
2022-11-10T02:47:43.075-07:00,-0.04624332115054130,0.01361537631601100,-0.008590270765125750,-0.001878093928098680,0.004801191389560700,0.0007656216621398930
2022-11-10T02:47:43.085-07:00,-0.03648070618510250,0.01730625331401830,-0.01060228887945410,0.0001827478408813480,0.005892977118492130,0.001154720783233640
2022-11-10T02:47:43.095-07:00,-0.03126407414674760,0.01425317022949460,-0.01228673849254850,0.002139363437891010,0.007906064391136170,0.003507435321807860
2022-11-10T02:47:43.105-07:00,-0.03270164877176290,0.01115644723176960,-0.01016712840646510,0.002477802336215970,0.004198804497718810,0.003175497055053710
2022-11-10T02:47:43.115-07:00,-0.03895444795489310,0.0106916930526495,-0.009888028725981710,0.003763336688280110,0.0001294761896133420,0.004496455192565920
2022-11-10T02:47:43.126-07:00,-0.03761940449476240,0.00448652682825923,-0.008023550733923910,0.004756353795528410,-0.002154864370822910,0.002689361572265630
2022-11-10T02:47:43.135-07:00,-0.02994054928421970,0.00685790553689003,-0.003968087956309320,0.002487447112798690,0.000805199146270752,-0.0007697343826293950
2022-11-10T02:47:43.145-07:00,-0.02501902729272840,0.012204734608531,-0.002921465784311300,0.003566104918718340,0.003199994564056400,-0.001120269298553470
2022-11-10T02:47:43.155-07:00,-0.02734849229454990,0.01524100359529260,-0.007112748920917510,0.002462040632963180,-0.002541929483413700,-0.001162409782409670
2022-11-10T02:47:43.166-07:00,-0.03617127984762190,0.01463646721094850,-0.007422208320349460,0.001090358942747120,-0.002933084964752200,-0.002528727054595950
2022-11-10T02:47:43.176-07:00,-0.03961095213890080,0.0159850250929594,-0.01256636995822190,0.001261312514543530,-0.002694465219974520,-0.001783609390258790
2022-11-10T02:47:43.186-07:00,-0.0530436709523201,0.02413110248744490,-0.01454083807766440,-0.001673322170972820,-0.00975201278924942,-0.001797497272491460
2022-11-10T02:47:43.196-07:00,-0.06896467506885530,0.02346221543848520,-0.01556615438312290,-0.001965666189789770,-0.01285630464553830,-0.0003398656845092770
2022-11-10T02:47:43.206-07:00,-0.07925619930028920,0.02807001583278180,-0.02125440165400510,-0.002452405169606210,-0.0172402486205101,0.002527952194213870
2022-11-10T02:47:43.216-07:00,-0.09543952345848080,0.02606262639164930,-0.02920020744204520,-0.004050344228744510,-0.01616618037223820,0.003210127353668210
2022-11-10T02:47:43.226-07:00,-0.09464138746261600,0.02825494110584260,-0.03593374416232110,-0.003997780382633210,-0.0167488306760788,0.000142216682434082
2022-11-10T02:47:43.249-07:00,-0.07680079340934750,0.02726231329143050,-0.04979469627141950,-0.006322916597127910,-0.01539686322212220,-0.00488734245300293
2022-11-10T02:47:43.251-07:00,-0.09126628935337070,0.03302459418773650,-0.04451551288366320,-0.004912359640002250,-0.01400190591812130,-0.006578743457794190
2022-11-10T02:47:43.256-07:00,-0.1166845634579660,0.03440677374601360,-0.05868512764573100,-0.005889995023608210,-0.01710592210292820,-0.00586247444152832
2022-11-10T02:47:43.266-07:00,-0.1458094269037250,0.05100865662097930,-0.07612430304288860,-0.007699379697442060,-0.03231966495513920,-0.002554595470428470
2022-11-10T02:47:43.277-07:00,-0.1682873368263250,0.05505509674549100,-0.08643846213817600,-0.008342638611793520,-0.03399109095335010,-0.003142297267913820
2022-11-10T02:47:43.286-07:00,-0.1965506672859190,0.05439063534140590,-0.1025135666131970,-0.009768446907401090,-0.02913803234696390,-0.004847526550292970
2022-11-10T02:47:43.297-07:00,-0.2467759847640990,0.0583169013261795,-0.1313769221305850,-0.01248421333730220,-0.04379026964306830,-0.006123661994934080
2022-11-10T02:47:43.307-07:00,-0.2736201286315920,0.08070982247591020,-0.1657660454511640,-0.01634501479566100,-0.0544738881289959,-0.009763598442077640
2022-11-10T02:47:43.316-07:00,-0.2720599472522740,0.09863735735416410,-0.1926373392343520,-0.02257903479039670,-0.05390099063515660,-0.01766365766525270
2022-11-10T02:47:43.326-07:00,-0.2840966582298280,0.1094029247760770,-0.2088863551616670,-0.02616911754012110,-0.04995546862483030,-0.02863633632659910
2022-11-10T02:47:43.336-07:00,-0.3032214343547820,0.1292853802442550,-0.2267561554908750,-0.02421360649168490,-0.04919763281941410,-0.02164024114608770
2022-11-10T02:47:43.346-07:00,-0.3438879251480100,0.1381696909666060,-0.2431337982416150,-0.0190751887857914,-0.06527090072631840,-0.01571363210678100
2022-11-10T02:47:43.357-07:00,-0.3703358471393590,0.1363729238510130,-0.2512181103229520,-0.01641061156988140,-0.06916972994804380,-0.01053237915039060
2022-11-10T02:47:43.366-07:00,-0.4090765714645390,0.1336149573326110,-0.2370724380016330,-0.01263137999922040,-0.06845314800739290,-0.01566952466964720
2022-11-10T02:47:43.377-07:00,-0.4665749967098240,0.1140598580241200,-0.2432520389556890,-0.01096543669700620,-0.06643016636371610,-0.01357042789459230
2022-11-10T02:47:43.387-07:00,-0.4838242828845980,0.1018929407000540,-0.2777477204799650,-0.0122106745839119,-0.06320657581090930,-0.007596433162689210
2022-11-10T02:47:43.397-07:00,-0.3846322596073150,0.07191459834575650,-0.3361718654632570,-0.01891909912228580,-0.04436813294887540,-0.002901732921600340
2022-11-10T02:47:43.406-07:00,-0.2195812612771990,0.07995255291461950,-0.366269052028656,-0.02785037085413930,-0.02708142437040810,0.005916893482208250
2022-11-10T02:47:43.416-07:00,-0.1110747829079630,0.1502483189105990,-0.3488247990608220,-0.04095481336116790,-0.004022059962153440,-0.003965139389038090
2022-11-10T02:47:43.426-07:00,-0.04057744517922400,0.1746114492416380,-0.3724086880683900,-0.04693390056490900,-0.007083816453814510,-0.01907706260681150
2022-11-10T02:47:43.437-07:00,-0.02162615768611430,0.173379510641098,-0.4238945245742800,-0.04508180171251300,-0.04362256452441220,-0.02605444192886350
2022-11-10T02:47:43.447-07:00,-0.04617997258901600,0.1862106323242190,-0.4495157301425930,-0.0385144054889679,-0.05804197490215300,-0.03283774852752690
2022-11-10T02:47:43.457-07:00,-0.1149049699306490,0.1941833198070530,-0.4700260758399960,-0.03440486639738080,-0.06010225415229800,-0.0342789888381958
2022-11-10T02:47:43.467-07:00,-0.1928189545869830,0.1940650790929790,-0.4957287609577180,-0.03035617433488370,-0.06550118327140810,-0.01594257354736330
2022-11-10T02:47:43.477-07:00,-0.267818957567215,0.1793250739574430,-0.5255140662193300,-0.02025536447763440,-0.07593074440956120,0.002458572387695310
2022-11-10T02:47:43.487-07:00,-0.3084667921066280,0.1608304977416990,-0.5313679575920110,-0.008219536393880840,-0.07925660908222200,0.01838701963424680
2022-11-10T02:47:43.497-07:00,-0.2943277359008790,0.1392857581377030,-0.5423908233642580,-0.001235179603099820,-0.06961639970541,0.02250045537948610
2022-11-10T02:47:43.507-07:00,-0.2224234789609910,0.1351288259029390,-0.5400001406669620,-0.002256456762552260,-0.04447122663259510,0.02019709348678590
2022-11-10T02:47:43.517-07:00,-0.116644449532032,0.1371766626834870,-0.5427610278129580,-0.007065590471029280,-0.01453807018697260,0.01501870155334470
2022-11-10T02:47:43.527-07:00,-0.03394584357738500,0.1527372449636460,-0.527660071849823,-0.01094801351428030,0.006915353238582610,0.005868136882781980
2022-11-10T02:47:43.537-07:00,0.01390217430889610,0.1576312631368640,-0.5234267115592960,-0.01500959694385530,0.021197360008955,-0.01070201396942140
2022-11-10T02:47:43.547-07:00,0.01216499321162700,0.1592731028795240,-0.5201350450515750,-0.01377053186297420,0.01709958910942080,-0.02048510313034060
2022-11-10T02:47:43.557-07:00,-0.03758541867136960,0.1547280699014660,-0.5008745193481450,-0.01255490258336070,0.003464827314019200,-0.02941703796386720
2022-11-10T02:47:43.567-07:00,-0.09426414221525190,0.1559033095836640,-0.4930709302425390,-0.01172944903373720,-0.002582158893346790,-0.031516432762146
2022-11-10T02:47:43.577-07:00,-0.1247227489948270,0.164738655090332,-0.497921347618103,-0.01438642293214800,-0.003349665552377700,-0.03263217210769650
2022-11-10T02:47:43.587-07:00,-0.1624333709478380,0.178247794508934,-0.4900248050689700,-0.01432238891720770,-0.0008134031668305400,-0.0226205587387085
2022-11-10T02:47:43.597-07:00,-0.2079338580369950,0.1883969455957410,-0.4731659293174740,-0.01374045386910440,0.0009632371366024020,-0.01207566261291500
2022-11-10T02:47:43.607-07:00,-0.2550664842128750,0.1921437382698060,-0.4804731011390690,-0.0139949657022953,-0.005832687951624390,-0.01364743709564210
2022-11-10T02:47:43.617-07:00,-0.3009943068027500,0.1875969618558880,-0.5071574449539190,-0.01504460349678990,-0.01825105771422390,-0.02547389268875120
2022-11-10T02:47:43.627-07:00,-0.3096210956573490,0.197489008307457,-0.5309299230575560,-0.01937583088874820,-0.03447100520133970,-0.03182637691497800
2022-11-10T02:47:43.637-07:00,-0.307582288980484,0.2158723771572110,-0.5469130873680120,-0.02636215090751650,-0.03719950467348100,-0.04608964920043950
2022-11-10T02:47:43.647-07:00,-0.309445708990097,0.2417274117469790,-0.563762366771698,-0.03322718292474750,-0.02428194135427480,-0.055755615234375
2022-11-10T02:47:43.657-07:00,-0.2951939404010770,0.2713091671466830,-0.5900592803955080,-0.03987879306077960,-0.02544245310127740,-0.05774754285812380
2022-11-10T02:47:43.667-07:00,-0.2837724387645720,0.2860644161701200,-0.6331851482391360,-0.04217199236154560,-0.03100264817476270,-0.06345903873443600
2022-11-10T02:47:43.677-07:00,-0.2817637026309970,0.318981945514679,-0.6671045422554020,-0.04953977465629580,-0.03697174787521360,-0.07269465923309330
2022-11-10T02:47:43.688-07:00,-0.2607950270175930,0.3349678218364720,-0.6920029520988460,-0.05424556136131290,-0.03715138882398610,-0.07097631692886350
2022-11-10T02:47:43.698-07:00,-0.2273633778095250,0.3431206345558170,-0.7343815565109250,-0.05407773703336720,-0.03829286620020870,-0.06850981712341310
2022-11-10T02:47:43.708-07:00,-0.2159314900636670,0.3603810966014860,-0.7639032602310180,-0.05506052076816560,-0.02819428965449330,-0.07231688499450680
2022-11-10T02:47:43.718-07:00,-0.2175005674362180,0.3681084811687470,-0.7638914585113530,-0.0617472231388092,-0.02293753623962400,-0.08162617683410650
2022-11-10T02:47:43.735-07:00,-0.2209405601024630,0.3473542034626010,-0.7771154046058660,-0.06339828670024870,-0.03162150084972380,-0.09023481607437130
2022-11-10T02:47:43.752-07:00,-0.2255924940109250,0.3349496722221380,-0.8136516213417050,-0.05960735678672790,-0.03958528861403470,-0.09695327281951900
2022-11-10T02:47:43.753-07:00,-0.2426066398620610,0.3461807370185850,-0.8233727216720580,-0.0688227117061615,-0.03853683546185490,-0.09494996070861820
2022-11-10T02:47:43.758-07:00,-0.2696333527565000,0.3861338794231420,-0.8195241689682010,-0.08437240868806840,-0.032453753054142,-0.08276534080505370
2022-11-10T02:47:43.768-07:00,-0.3125291466712950,0.4258162975311280,-0.8297224640846250,-0.09108114242553710,-0.03384928405284880,-0.06923830509185790
2022-11-10T02:47:43.778-07:00,-0.3990594744682310,0.4517440497875210,-0.8506940603256230,-0.091099813580513,-0.04469825327396390,-0.06696838140487670
2022-11-10T02:47:43.788-07:00,-0.5282291769981380,0.4665911793708800,-0.8611661791801450,-0.08569741249084470,-0.05828730016946790,-0.06559097766876220
2022-11-10T02:47:43.798-07:00,-0.6693655252456670,0.4762744009494780,-0.8723530173301700,-0.07953943312168120,-0.06364233046770100,-0.06264525651931760
2022-11-10T02:47:43.808-07:00,-0.7774363160133360,0.4624544382095340,-0.9336467385292050,-0.07462258636951450,-0.07085099816322330,-0.06030809879302980
2022-11-10T02:47:43.818-07:00,-0.8473802804946900,0.4505429565906530,-0.9905880689620970,-0.06357503682374950,-0.07559790462255480,-0.04925179481506350
2022-11-10T02:47:43.828-07:00,-0.8808037638664250,0.4690106511116030,-0.9895493984222410,-0.05843143165111540,-0.06320667266845700,-0.04634326696395870
2022-11-10T02:47:43.838-07:00,-0.880168080329895,0.5011438727378850,-0.9827064275741580,-0.06462065130472180,-0.05231484025716780,-0.0493086576461792
2022-11-10T02:47:43.848-07:00,-0.8668059706687930,0.5270505547523500,-0.9908136129379270,-0.07558596134185790,-0.04966002702713010,-0.05151695013046270
2022-11-10T02:47:43.858-07:00,-0.8578281998634340,0.566331684589386,-1.016820788383480,-0.07968844473361970,-0.04718883335590360,-0.05100905895233150
2022-11-10T02:47:43.868-07:00,-0.8478133678436280,0.5891048908233640,-1.059778094291690,-0.0819316953420639,-0.04506805539131170,-0.0585097074508667
2022-11-10T02:47:43.878-07:00,-0.8396757841110230,0.6056217551231380,-1.093623876571660,-0.08406896889209750,-0.04905968904495240,-0.06242120265960690
2022-11-10T02:47:43.889-07:00,-0.83794766664505,0.6322895884513860,-1.123090505599980,-0.08781328797340390,-0.04411660134792330,-0.05308014154434200
2022-11-10T02:47:43.898-07:00,-0.8393452167510990,0.6496877670288090,-1.177737951278690,-0.09239083528518680,-0.02622857689857480,-0.03817349672317510
2022-11-10T02:47:43.908-07:00,-0.8779895305633550,0.6764392256736760,-1.214160442352300,-0.09221519529819490,-0.01833073794841770,-0.01944935321807860
2022-11-10T02:47:43.918-07:00,-0.9618359208107000,0.7035114765167240,-1.220569014549260,-0.09432336688041690,-0.02581475675106050,0.004401266574859620
2022-11-10T02:47:43.928-07:00,-1.074823975563050,0.7290013432502750,-1.195774674415590,-0.08815161883831020,-0.04117108881473540,0.02331238985061650
2022-11-10T02:47:43.938-07:00,-1.156677484512330,0.7319797277450560,-1.18067479133606,-0.08072836697101590,-0.05037526786327360,0.04256415367126470
2022-11-10T02:47:43.948-07:00,-1.198384284973150,0.7170303463935850,-1.165987014770510,-0.07364362478256230,-0.04749684035778050,0.05010861158370970
2022-11-10T02:47:43.958-07:00,-1.22725510597229,0.6820405721664430,-1.154049634933470,-0.06129865348339080,-0.02489010989665990,0.04711657762527470
2022-11-10T02:47:43.968-07:00,-1.244221925735470,0.6883893013000490,-1.111670732498170,-0.05604425072669980,-0.003767788410186770,0.05457711219787600
2022-11-10T02:47:43.978-07:00,-1.239465355873110,0.6914008855819700,-1.080527544021610,-0.05212976038455960,-0.01173493266105650,0.06052917242050170
2022-11-10T02:47:43.989-07:00,-1.233160257339480,0.6825913786888120,-1.080561876297000,-0.06052379310131070,-0.03158748149871830,0.07014918327331540
2022-11-10T02:47:43.998-07:00,-1.210614800453190,0.6717950105667110,-1.075691938400270,-0.06028094887733460,-0.0247291624546051,0.07814812660217290
2022-11-10T02:47:44.008-07:00,-1.171400547027590,0.6563135385513310,-1.056713461875920,-0.05359312891960140,-0.01060235500335690,0.08690708875656130
2022-11-10T02:47:44.019-07:00,-1.123733043670650,0.6457366347312930,-1.080873966217040,-0.04633846879005430,-0.004539906978607180,0.09574741125106810
2022-11-10T02:47:44.029-07:00,-1.093286991119390,0.6179447174072270,-1.09632134437561,-0.04412670433521270,-0.01292750239372250,0.1024935245513920
2022-11-10T02:47:44.039-07:00,-1.089741110801700,0.5612165331840520,-1.115095376968380,-0.03862585127353670,-0.02668339014053350,0.109437882900238
2022-11-10T02:47:44.049-07:00,-1.068663239479070,0.540855884552002,-1.123873114585880,-0.03301076591014860,-0.04171478748321530,0.1226342916488650
2022-11-10T02:47:44.059-07:00,-1.076738476753240,0.5408100485801700,-1.127066254615780,-0.02805660665035250,-0.04877278208732610,0.123819887638092
2022-11-10T02:47:44.069-07:00,-1.102836012840270,0.5442790985107420,-1.143067240715030,-0.03266246616840360,-0.04788324236869810,0.126844584941864
2022-11-10T02:47:44.079-07:00,-1.136897087097170,0.5462186932563780,-1.169717907905580,-0.03506644070148470,-0.05710265040397640,0.1317850947380070
2022-11-10T02:47:44.089-07:00,-1.167975664138790,0.5586641430854800,-1.190154194831850,-0.02995820343494420,-0.07150453329086300,0.139681875705719
2022-11-10T02:47:44.099-07:00,-1.188431978225710,0.4338187277317050,-1.210986256599430,-0.03100016713142400,-0.08116212487220760,0.1398400068283080
2022-11-10T02:47:44.109-07:00,-1.220601677894590,0.3260999619960790,-1.190305233001710,0.006805330514907840,-0.07434779405593870,0.1528465747833250
2022-11-10T02:47:44.119-07:00,-1.184733390808110,0.239664688706398,-1.199301362037660,0.04682958126068120,-0.07581555843353270,0.1545512676239010
2022-11-10T02:47:44.129-07:00,-1.071106672286990,0.173482209444046,-1.223920464515690,0.03528645634651180,-0.07553035020828250,0.1508649587631230
2022-11-10T02:47:44.139-07:00,-0.9045273661613460,0.1104862689971920,-1.235158920288090,0.01173444092273710,-0.04703554511070250,0.132000207901001
2022-11-10T02:47:44.149-07:00,-0.7196472883224490,0.06466977298259740,-1.255930542945860,-0.006967157125473020,-0.009606719017028810,0.1106427907943730
2022-11-10T02:47:44.159-07:00,-0.5054970383644100,-0.0004656875971704720,-1.28940486907959,-0.01961106061935430,0.01806908845901490,0.09423071146011350
2022-11-10T02:47:44.169-07:00,-0.2916564047336580,-0.05794895440340040,-1.322025895118710,-0.01841743290424350,0.01374164223670960,0.08931785821914670
2022-11-10T02:47:44.179-07:00,-0.1101918742060660,-0.07673908770084380,-1.359928965568540,-0.01963064074516300,-0.002102375030517580,0.1001344919204710
2022-11-10T02:47:44.189-07:00,-0.07955993711948400,-0.09921883046627050,-1.393380165100100,-0.03179776668548580,-0.01534092426300050,0.1155633330345150
2022-11-10T02:47:44.199-07:00,-0.2495717406272890,-0.1079709082841870,-1.413943290710450,-0.0423702597618103,-0.02828449010849000,0.1268852949142460
2022-11-10T02:47:44.209-07:00,-0.5573668479919430,-0.121655561029911,-1.430734515190130,-0.03569953143596650,-0.05344682931900020,0.1328785419464110
2022-11-10T02:47:44.219-07:00,-0.9491672515869140,-0.1236477419734000,-1.457325220108030,-0.01960429549217220,-0.09545755386352540,0.1343002319335940
2022-11-10T02:47:44.235-07:00,-1.363032579422000,-0.1315232366323470,-1.507234930992130,-0.009675696492195130,-0.1257039904594420,0.1214995384216310
2022-11-10T02:47:44.251-07:00,-1.730920314788820,-0.1960170865058900,-1.472420454025270,0.009002573788166050,-0.1373032927513120,0.1205000281333920
2022-11-10T02:47:44.253-07:00,-1.999533176422120,-0.263707160949707,-1.371167898178100,0.01915160566568380,-0.1352008581161500,0.1257224082946780
2022-11-10T02:47:44.260-07:00,-2.090994119644170,-0.3059091567993160,-1.314385890960690,0.0158449113368988,-0.1323805451393130,0.1247069239616390
2022-11-10T02:47:44.270-07:00,-1.989336609840390,-0.3151825368404390,-1.305617094039920,0.002140894532203670,-0.0942223072052002,0.1016998887062070
2022-11-10T02:47:44.279-07:00,-1.803623795509340,-0.2894495725631710,-1.324975967407230,-0.009513050317764280,-0.01237344741821290,0.0724826455116272
2022-11-10T02:47:44.290-07:00,-1.607259631156920,-0.2559837698936460,-1.340591430664060,-0.02383721619844440,0.07337731122970580,0.03395330905914310
2022-11-10T02:47:44.300-07:00,-1.413225531578060,-0.2251460254192350,-1.359021425247190,-0.02731382846832280,0.115947425365448,0.003259718418121340
2022-11-10T02:47:44.310-07:00,-1.240885496139530,-0.2084051370620730,-1.387802243232730,-0.01612922549247740,0.1121350526809690,-0.004766523838043210
2022-11-10T02:47:44.320-07:00,-1.118261933326720,-0.2102072685956960,-1.388170838356020,0.002733632922172550,0.1002596020698550,9.59634780883789E-05
2022-11-10T02:47:44.330-07:00,-0.9835812449455260,-0.2289508581161500,-1.369468688964840,0.02767173945903780,0.09663444757461550,0.009473502635955810
2022-11-10T02:47:44.340-07:00,-0.8144023418426510,-0.2541950345039370,-1.338525772094730,0.04746255278587340,0.08173650503158570,0.03416335582733150
2022-11-10T02:47:44.350-07:00,-0.6562590003013610,-0.2451506555080410,-1.282534599304200,0.05545424669981000,0.08090966939926150,0.04840826988220220
2022-11-10T02:47:44.360-07:00,-0.4734137058258060,-0.2225024402141570,-1.23185658454895,0.0457695946097374,0.1015792489051820,0.044319748878479
2022-11-10T02:47:44.370-07:00,-0.2694989442825320,-0.1898856461048130,-1.189352750778200,0.0402679517865181,0.1173762083053590,0.02631461620330810
2022-11-10T02:47:44.380-07:00,-0.04889942705631260,-0.1686536371707920,-1.077180743217470,0.04201548174023630,0.1165606379508970,0.01052570343017580
2022-11-10T02:47:44.390-07:00,0.1207231730222700,-0.1566270738840100,-0.9350332021713260,0.04942365735769270,0.1327096819877630,-0.01708126068115230
2022-11-10T02:47:44.400-07:00,0.1962689906358720,-0.1826090514659880,-0.8771930336952210,0.0541180893778801,0.1841785907745360,-0.04403740167617800
2022-11-10T02:47:44.410-07:00,0.2443334460258480,-0.2154452949762340,-0.9384896755218510,0.05167452245950700,0.1982264518737790,-0.05084919929504400
2022-11-10T02:47:44.421-07:00,0.01721784472465520,-0.1998984068632130,-0.8537327647209170,0.03204124420881270,0.1582661867141720,-0.04716110229492190
2022-11-10T02:47:44.431-07:00,-0.2657003998756410,-0.1514035761356350,-0.6704081892967220,0.0333126112818718,0.130155086517334,-0.03085267543792730
2022-11-10T02:47:44.440-07:00,-0.3714215457439420,-0.1291472315788270,-0.5978463292121890,0.04465822875499730,0.08478361368179320,-0.02962666749954220
2022-11-10T02:47:44.450-07:00,-0.4047440886497500,-0.1406188011169430,-0.5318779349327090,0.05090653151273730,0.1070422530174260,-0.04482758045196530
2022-11-10T02:47:44.460-07:00,-0.3151012659072880,-0.1344669014215470,-0.4732474386692050,0.05263618379831310,0.2102583050727840,-0.05393481254577640
2022-11-10T02:47:44.470-07:00,-0.1836913228034970,-0.1382770836353300,-0.4366217851638790,0.04313217848539350,0.2429554462432860,-0.07365322113037110
2022-11-10T02:47:44.480-07:00,-0.03929413482546810,-0.1470416039228440,-0.4059224426746370,0.03894773870706560,0.2193518280982970,-0.08790302276611330
2022-11-10T02:47:44.490-07:00,0.1398873329162600,-0.1629167199134830,-0.3605682849884030,0.03983429074287420,0.1775473952293400,-0.0897451639175415
2022-11-10T02:47:44.500-07:00,0.3224895894527440,-0.1822240352630620,-0.2866296172142030,0.04062020778656010,0.1408800482749940,-0.08321809768676760
2022-11-10T02:47:44.510-07:00,0.4546310901641850,-0.2170288860797880,-0.2509232759475710,0.04445583373308180,0.1328689455986020,-0.05280494689941410
2022-11-10T02:47:44.520-07:00,0.4770527184009550,-0.233776643872261,-0.2510761618614200,0.04621659964323040,0.1162589192390440,-0.01626753807067870
2022-11-10T02:47:44.530-07:00,0.3880669176578520,-0.2496373653411870,-0.2697294652462010,0.03784016519784930,0.08426475524902340,0.01278495788574220
2022-11-10T02:47:44.545-07:00,0.2253446131944660,-0.2501641809940340,-0.2742107510566710,0.02291025966405870,0.03090530633926390,0.03792315721511840
2022-11-10T02:47:44.567-07:00,0.03055728226900100,-0.2629105746746060,-0.2741675972938540,0.009974397718906400,-0.02111518383026120,0.05321550369262700
2022-11-10T02:47:44.572-07:00,-0.1422625929117200,-0.2780920565128330,-0.2762896418571470,0.004779905080795290,-0.04864615201950070,0.06682115793228150
2022-11-10T02:47:44.573-07:00,-0.296671599149704,-0.3033771812915800,-0.2975664138793950,0.0007585585117340090,-0.0598328709602356,0.07568067312240600
2022-11-10T02:47:44.581-07:00,-0.4750719964504240,-0.3345035910606380,-0.3184051215648650,-0.0007129460573196410,-0.07173788547515870,0.07101845741271970
2022-11-10T02:47:44.590-07:00,-0.6761036515235900,-0.3633690774440770,-0.3423059284687040,-0.003853857517242430,-0.08573061227798460,0.06644070148468020
2022-11-10T02:47:44.601-07:00,-0.8713028430938720,-0.3816310465335850,-0.3624801635742190,-0.01101662218570710,-0.1256844401359560,0.05540233850479130
2022-11-10T02:47:44.610-07:00,-1.108771324157720,-0.3968779146671300,-0.379044234752655,-0.01785553991794590,-0.1687501072883610,0.0384332537651062
2022-11-10T02:47:44.620-07:00,-1.34743344783783,-0.3724614977836610,-0.4034126996994020,-0.018189936876297,-0.1830441355705260,0.02936208248138430
2022-11-10T02:47:44.630-07:00,-1.558691024780270,-0.3424695134162900,-0.460784912109375,-0.02243252098560330,-0.1878640651702880,0.02948552370071410
2022-11-10T02:47:44.640-07:00,-1.750097513198850,-0.3073637783527370,-0.5173770785331730,-0.02287593483924870,-0.1796004176139830,0.02600473165512090
2022-11-10T02:47:44.653-07:00,-1.91155993938446,-0.2792216241359710,-0.5677465200424190,-0.01846012473106380,-0.1604872345924380,0.01831579208374020
2022-11-10T02:47:44.661-07:00,-2.083762884140020,-0.2581689953804020,-0.6157371997833250,-0.01479876041412350,-0.1647654175758360,0.005903005599975590
2022-11-10T02:47:44.671-07:00,-2.275523900985720,-0.2407514005899430,-0.6577011942863460,-0.008738726377487180,-0.1734552383422850,0.005029380321502690
2022-11-10T02:47:44.681-07:00,-2.492966413497930,-0.2079458981752400,-0.6867495775222780,-0.007426649332046510,-0.1802197694778440,0.009098351001739500
2022-11-10T02:47:44.691-07:00,-2.733417510986330,-0.1923802644014360,-0.7315340638160710,-0.003570497035980230,-0.1847940683364870,0.01191920042037960
2022-11-10T02:47:44.701-07:00,-2.989320755004880,-0.17133928835392,-0.76101154088974,0.008338451385498050,-0.1951982975006100,0.01497960090637210
2022-11-10T02:47:44.711-07:00,-3.278552293777470,-0.1452091485261920,-0.7924802899360660,0.01883646845817570,-0.204917311668396,0.02187317609786990
2022-11-10T02:47:44.721-07:00,-3.53744649887085,-0.09443485736846920,-0.8281977772712710,0.02874274551868440,-0.2220730185508730,0.03825885057449340
2022-11-10T02:47:44.731-07:00,-3.715685606002810,-0.07914245873689650,-0.8682535886764530,0.03952877223491670,-0.240741491317749,0.04625862836837770
2022-11-10T02:47:44.741-07:00,-3.853647470474240,-0.05989615619182590,-0.908193051815033,0.04950034618377690,-0.2439848780632020,0.03784918785095220
2022-11-10T02:47:44.751-07:00,-3.895324945449830,-0.03794718161225320,-0.9200143218040470,0.05616655945777890,-0.2156742215156560,0.006810158491134640
2022-11-10T02:47:44.761-07:00,-3.911766767501830,-0.01350988447666170,-0.9048651456832890,0.0598008930683136,-0.1739268898963930,-0.04495713114738460
2022-11-10T02:47:44.771-07:00,-3.974547147750850,-0.007949735969305040,-0.9013792872428890,0.06039711833000180,-0.1064444184303280,-0.08439788222312930
2022-11-10T02:47:44.781-07:00,-3.953927993774410,0.0473397858440876,-0.9442195296287540,0.04995495080947880,-0.04941898584365850,-0.1087613701820370
2022-11-10T02:47:44.792-07:00,-3.936992645263670,0.112276703119278,-0.9974609017372130,0.03717419505119320,-0.03032654523849490,-0.1275782287120820
2022-11-10T02:47:44.801-07:00,-3.888870477676390,0.1897790879011150,-1.025724172592160,0.02911004424095150,-0.03146469593048100,-0.1187001913785930
2022-11-10T02:47:44.811-07:00,-3.874296188354490,0.2340493351221090,-1.023007273674010,0.0403594970703125,-0.05957674980163570,-0.1023193895816800
2022-11-10T02:47:44.821-07:00,-3.886008977890020,0.2618537247180940,-1.073640584945680,0.05819758772850040,-0.08440923690795900,-0.07958972454071050
2022-11-10T02:47:44.831-07:00,-3.760582685470580,0.3004221618175510,-1.152012586593630,0.06977647542953490,-0.1038885712623600,-0.05796994268894200
2022-11-10T02:47:44.841-07:00,-3.584093332290650,0.3336849808692930,-1.203204393386840,0.07859104871749880,-0.1097150444984440,-0.05222749710083010
2022-11-10T02:47:44.851-07:00,-3.457534551620480,0.3164050579071050,-1.258346557617190,0.07673731446266170,-0.07412195205688480,-0.05212181434035300
2022-11-10T02:47:44.861-07:00,-3.349202871322630,0.3064168691635130,-1.330427050590520,0.06581500172615050,-0.04344534873962400,-0.06681215763092040
2022-11-10T02:47:44.871-07:00,-3.337974071502690,0.3172713816165920,-1.426283597946170,0.03799673914909360,-0.01012110710144040,-0.09075713157653810
2022-11-10T02:47:44.882-07:00,-3.258492708206180,0.399147629737854,-1.489961862564090,0.005508005619049070,0.0242496132850647,-0.09953916072845460
2022-11-10T02:47:44.892-07:00,-3.191590070724490,0.4573374092578890,-1.516136050224300,-0.01916047930717470,0.004345357418060300,-0.1020081043243410
2022-11-10T02:47:44.902-07:00,-3.189403533935550,0.4795019924640660,-1.499587893486020,-0.02085873484611510,-0.003637731075286870,-0.08832944184541700
2022-11-10T02:47:44.912-07:00,-2.904990434646610,0.5434700846672060,-1.535346984863280,-0.004455506801605230,-0.01931124925613400,-0.04732465744018560
2022-11-10T02:47:44.922-07:00,-2.526121616363530,0.5899996757507320,-1.534897208213810,-0.009190678596496580,-0.04270422458648680,-0.02277110517024990
2022-11-10T02:47:44.932-07:00,-2.202580213546750,0.6229860782623290,-1.44170093536377,-0.03196892142295840,0.01204532384872440,-0.01447667181491850
2022-11-10T02:47:44.942-07:00,-1.811100125312810,0.6627826690673830,-1.411238670349120,-0.02312517166137700,0.05718952417373660,0.01963089406490330
2022-11-10T02:47:44.952-07:00,-1.447035431861880,0.6238784193992620,-1.44373083114624,-0.01407641172409060,0.0404859185218811,0.02412307262420650
2022-11-10T02:47:44.962-07:00,-1.070644497871400,0.6291938424110410,-1.438669204711910,-0.01100674271583560,0.05664509534835820,0.03635779023170470
2022-11-10T02:47:44.972-07:00,-0.6285959482192990,0.6420286893844600,-1.458484411239620,-0.01892614364624020,0.07831645011901860,0.03029835224151610
2022-11-10T02:47:44.982-07:00,-0.3450110256671910,0.5813255906105040,-1.448915600776670,-0.02239805459976200,0.08244723081588750,0.01181130111217500
2022-11-10T02:47:44.992-07:00,-0.163327544927597,0.5249089598655700,-1.415925145149230,-0.01485538482666020,0.1080322861671450,0.01602962613105770
2022-11-10T02:47:45.002-07:00,-0.007609309628605840,0.4842962622642520,-1.424463033676150,-0.01246482133865360,0.09996277093887330,0.02226844429969790
2022-11-10T02:47:45.012-07:00,0.08621677756309510,0.4493627846241000,-1.400009989738460,-0.02143067121505740,0.05238175392150880,0.02272365987300870
2022-11-10T02:47:45.022-07:00,0.06628129631280900,0.4061712324619290,-1.336501955986020,-0.03033512830734250,0.02499783039093020,0.02397499978542330
2022-11-10T02:47:45.032-07:00,-0.02117425389587880,0.379632830619812,-1.312552928924560,-0.03840428590774540,0.02866721153259280,0.03081919252872470
2022-11-10T02:47:45.042-07:00,-0.09578963369131090,0.3682206869125370,-1.323361754417420,-0.04961001873016360,0.01861006021499630,0.04000328481197360
2022-11-10T02:47:45.052-07:00,-0.1303494721651080,0.3668427467346190,-1.320415496826170,-0.05459845066070560,-0.003115534782409670,0.04850864410400390
2022-11-10T02:47:45.062-07:00,-0.1113099381327630,0.3521833121776580,-1.290123343467710,-0.05127376317977910,-0.006383657455444340,0.05169390141963960
2022-11-10T02:47:45.072-07:00,-0.0919966921210289,0.3009898960590360,-1.235628962516790,-0.04563528299331670,0.008027315139770510,0.04752279818058010
2022-11-10T02:47:45.082-07:00,-0.1020200997591020,0.2810538113117220,-1.208752632141110,-0.03707975149154660,0.02828580141067510,0.04356707632541660
2022-11-10T02:47:45.092-07:00,-0.09914202243089680,0.2979875206947330,-1.238270282745360,-0.03876274824142460,0.04585975408554080,0.0355517715215683
2022-11-10T02:47:45.102-07:00,-0.03147462755441670,0.30018550157547,-1.246525049209600,-0.05062359571456910,0.07856279611587520,0.02038894593715670
2022-11-10T02:47:45.112-07:00,0.1025739908218380,0.2757973372936250,-1.203939437866210,-0.06333589553833010,0.1293312907218930,0.00966586172580719
2022-11-10T02:47:45.122-07:00,0.241938054561615,0.2223508208990100,-1.129336833953860,-0.06977832317352300,0.1589335799217220,0.005332440137863160
2022-11-10T02:47:45.132-07:00,0.3647484183311460,0.1685120910406110,-1.033518671989440,-0.07266712188720700,0.1550610065460210,0.01258194446563720
2022-11-10T02:47:45.142-07:00,0.5056281089782720,0.2151306122541430,-1.026045083999630,-0.07906442880630490,0.1342968344688420,0.02378825843334200
2022-11-10T02:47:45.152-07:00,0.6375752687454220,0.2364572137594220,-1.038813352584840,-0.0846436619758606,0.1017986536026000,0.02113437652587890
2022-11-10T02:47:45.163-07:00,0.7573947906494140,0.2621956169605260,-1.030512809753420,-0.07029783725738530,0.08976328372955320,0.02667105197906490
2022-11-10T02:47:45.173-07:00,0.8471907377243040,0.2124616354703900,-0.997863233089447,-0.04348766803741460,0.08146035671234130,0.02444814145565030
2022-11-10T02:47:45.183-07:00,0.8797098398208620,0.1690589636564260,-0.9629753232002260,-0.01254582405090330,0.07453811168670650,0.03531455993652340
2022-11-10T02:47:45.193-07:00,0.9067761301994320,0.1519907563924790,-0.9609230756759640,-0.005460739135742190,0.0702022910118103,0.03398990631103520
2022-11-10T02:47:45.203-07:00,0.9582278728485110,0.1203023791313170,-0.9248141050338750,-0.009981691837310790,0.05795025825500490,0.0174795538187027
2022-11-10T02:47:45.213-07:00,1.011353850364690,0.1406108289957050,-0.9138447642326360,-0.01354396343231200,0.05777943134307860,-0.002599738538265230
2022-11-10T02:47:45.223-07:00,1.080897688865660,0.1346909254789350,-0.9304274916648870,-0.01480227708816530,0.05773299932479860,-0.02786003053188320
2022-11-10T02:47:45.233-07:00,1.156129598617550,0.09765515476465230,-0.9149311184883120,-0.005700230598449710,0.05548340082168580,-0.03934621810913090
2022-11-10T02:47:45.243-07:00,1.199354290962220,0.07935278117656710,-0.9080744981765750,0.00762939453125,0.06268298625946050,-0.03986145555973050
2022-11-10T02:47:45.253-07:00,1.221146106719970,0.0606219694018364,-0.8968514204025270,0.01632022857666020,0.05723088979721070,-0.04122066497802730
2022-11-10T02:47:45.263-07:00,1.212047696113590,0.06604202836751940,-0.8696413636207580,0.0145372748374939,0.05336785316467290,-0.03017712384462360
2022-11-10T02:47:45.273-07:00,1.193463802337650,0.07929045706987380,-0.8685318827629090,0.01431190967559810,0.05641430616378780,-0.0289914533495903
2022-11-10T02:47:45.283-07:00,1.16944682598114,0.08302244544029240,-0.8581926822662350,0.0234915018081665,0.04961943626403810,-0.02264262363314630
2022-11-10T02:47:45.293-07:00,1.129719614982610,0.07714778184890750,-0.8310180306434630,0.03605389595031740,0.044716477394104,-0.01413750648498540
2022-11-10T02:47:45.303-07:00,1.061390042304990,0.05573766306042670,-0.7962383031845090,0.0455060601234436,0.03616803884506230,-0.002878669649362560
2022-11-10T02:47:45.313-07:00,0.9828689098358150,0.05910230055451390,-0.7691637873649600,0.04676425457000730,0.01750838756561280,0.008685111999511720
2022-11-10T02:47:45.323-07:00,0.899635374546051,0.06668522208929060,-0.7451476454734800,0.03775012493133550,0.005813777446746830,0.009761810302734380
2022-11-10T02:47:45.333-07:00,0.7926988005638120,0.08144498616456990,-0.7138722538948060,0.02823615074157720,0.01038503646850590,0.013916015625
2022-11-10T02:47:45.343-07:00,0.6657227277755740,0.07628804445266720,-0.6768417954444890,0.02958583831787110,0.01899009943008420,0.01809572987258430
2022-11-10T02:47:45.353-07:00,0.5426367521286010,0.05912743508815770,-0.6469688415527340,0.03704243898391720,0.01801246404647830,0.02102053165435790
2022-11-10T02:47:45.363-07:00,0.4402296245098110,0.04637308791279790,-0.6208935976028440,0.04155838489532470,0.01666325330734250,0.02888727188110350
2022-11-10T02:47:45.373-07:00,0.3692246973514560,0.04532619938254360,-0.605734646320343,0.03340458869934080,0.02628308534622190,0.0317542552947998
2022-11-10T02:47:45.383-07:00,0.3389414846897130,0.05033707246184350,-0.5874139666557310,0.02143234014511110,0.03256183862686160,0.02090227603912350
2022-11-10T02:47:45.393-07:00,0.3493746817111970,0.05494753643870350,-0.5548844933509830,0.01573336124420170,0.03551596403121950,0.006423473358154300
2022-11-10T02:47:45.403-07:00,0.3749552667140960,0.05371569469571110,-0.5125023722648620,0.01561880111694340,0.04283684492111210,0.004155159462243320
2022-11-10T02:47:45.413-07:00,0.392702579498291,0.05013800412416460,-0.4865826666355130,0.01553040742874150,0.05484408140182500,0.01123946998268370
2022-11-10T02:47:45.423-07:00,0.4030540883541110,0.06119084730744360,-0.4667969942092900,0.011618971824646,0.04966485500335690,0.02004307508468630
2022-11-10T02:47:45.433-07:00,0.3601053059101110,0.06501861661672590,-0.4457029104232790,0.01072263717651370,0.03901475667953490,0.02825254388153550
2022-11-10T02:47:45.444-07:00,0.2788998782634740,0.06551506370306020,-0.4167793393135070,0.0120730996131897,0.02975273132324220,0.03908413648605350
2022-11-10T02:47:45.453-07:00,0.1433862596750260,0.06243990734219550,-0.3979619741439820,0.01310271024703980,0.02334946393966680,0.04732966423034670
2022-11-10T02:47:45.464-07:00,0.02532906644046310,0.06585441529750820,-0.3869135975837710,0.009722769260406490,0.02173221111297610,0.05354869365692140
2022-11-10T02:47:45.474-07:00,-0.07066510617733000,0.06856577843427660,-0.3649947047233580,0.002916991710662840,0.01414364576339720,0.05197602510452270
2022-11-10T02:47:45.484-07:00,-0.1406658589839940,0.05960939824581150,-0.3419176340103150,0.007118701934814450,0.009968817234039310,0.04624080657958980
2022-11-10T02:47:45.494-07:00,-0.1740043759346010,0.02769540995359420,-0.3210184872150420,0.01262140274047850,0.0032958984375,0.0395389199256897
2022-11-10T02:47:45.504-07:00,-0.1697782427072530,0.01173804886639120,-0.3056088984012600,0.01407217979431150,0.01154261827468870,0.03707230091094970
2022-11-10T02:47:45.514-07:00,-0.122331365942955,0.00889565609395504,-0.3243346512317660,0.009378254413604740,0.03020936250686650,0.02618426084518430
2022-11-10T02:47:45.524-07:00,-0.04778535664081570,0.002751077990978960,-0.3394885659217830,-0.003220975399017330,0.04620635509490970,0.01670914888381960
2022-11-10T02:47:45.534-07:00,0.0350077897310257,0.0130577776581049,-0.326635330915451,-0.005518436431884770,0.05717051029205320,0.01570457220077520
2022-11-10T02:47:45.544-07:00,0.1275725215673450,0.01126823388040070,-0.3467126786708830,-0.002268075942993160,0.05948758125305180,0.0111701488494873
2022-11-10T02:47:45.554-07:00,0.2248330265283590,0.01700920984148980,-0.3626325130462650,-0.001375079154968260,0.04417049884796140,0.007352173328399660
2022-11-10T02:47:45.564-07:00,0.323143869638443,0.01462301798164850,-0.3614572584629060,-0.004135549068450930,0.04617983102798460,0.004524828866124150
2022-11-10T02:47:45.574-07:00,0.4288151860237120,0.01094785518944260,-0.3713101446628570,-0.004801332950592040,0.04921984672546390,0.002441765740513800
2022-11-10T02:47:45.584-07:00,0.5299282073974610,0.00426971260458231,-0.3728486597537990,-0.006785750389099120,0.04689931869506840,0.0003839731216430660
2022-11-10T02:47:45.594-07:00,0.5942185521125790,-0.008716925978660580,-0.3746284544467930,-0.01491868495941160,0.04228729009628300,-0.00185716524720192
2022-11-10T02:47:45.605-07:00,0.6521589159965520,0.0002348902635276320,-0.3829835653305050,-0.02455854415893560,0.03513354063034060,-0.004593191668391230
2022-11-10T02:47:45.614-07:00,0.7056751251220700,-0.000907073263078928,-0.3893674314022060,-0.02970731258392330,0.02384096384048460,-0.01270627602934840
2022-11-10T02:47:45.624-07:00,0.7378775477409360,-0.002754774410277610,-0.3789384961128240,-0.034088134765625,0.01914992928504940,-0.01767104864120480
2022-11-10T02:47:45.634-07:00,0.7274840474128720,0.006957241334021090,-0.3565961718559270,-0.03257352113723760,0.02221730351448060,-0.02784645557403560
2022-11-10T02:47:45.644-07:00,0.6581757664680480,0.0001672790385782720,-0.3297717571258550,-0.02959358692169190,0.01436808705329900,-0.03890931606292730
2022-11-10T02:47:45.654-07:00,0.5551161766052250,0.003525791689753530,-0.297345370054245,-0.0249868631362915,-0.005647093057632450,-0.041495680809021
2022-11-10T02:47:45.664-07:00,0.4174985289573670,0.01343854237347840,-0.2562142014503480,-0.02137422561645510,-0.03124243021011350,-0.04309266060590740
2022-11-10T02:47:45.674-07:00,0.297955334186554,0.0207475870847702,-0.2163304090499880,-0.01644301414489750,-0.03889003396034240,-0.04558701068162920
2022-11-10T02:47:45.684-07:00,0.1871050596237180,0.02954074926674370,-0.1825287789106370,-0.01224434375762940,-0.03251644968986510,-0.0450432300567627
2022-11-10T02:47:45.694-07:00,0.08330141752958300,0.03973745554685590,-0.1541301608085630,-0.008078277111053470,-0.02028664946556090,-0.04498302936553960
2022-11-10T02:47:45.704-07:00,-0.0156663041561842,0.04018313810229300,-0.12991563975811,-0.007375180721282960,-0.01294153928756710,-0.05039381608366970
2022-11-10T02:47:45.714-07:00,-0.09720803797245030,0.06142797693610190,-0.1005846485495570,-0.008514702320098880,-0.01552236080169680,-0.05398332700133320
2022-11-10T02:47:45.725-07:00,-0.1653963029384610,0.08643095940351490,-0.07318257540464400,-0.01073646545410160,-0.02068725228309630,-0.05840218067169190
2022-11-10T02:47:45.734-07:00,-0.2242013067007070,0.1170802190899850,-0.05518760159611700,-0.01297914981842040,-0.01848119497299190,-0.05424142628908160
2022-11-10T02:47:45.745-07:00,-0.2805849611759190,0.1533801704645160,-0.03264261037111280,-0.01225990056991580,-0.009646683931350710,-0.04248321056365970
2022-11-10T02:47:45.755-07:00,-0.3453189432621000,0.1837718933820720,-0.0004511182196438310,-0.003105044364929200,-0.001663327217102050,-0.03384387493133550
2022-11-10T02:47:45.765-07:00,-0.4113984405994420,0.1923960745334630,0.0343252420425415,0.01213651895523070,-0.001426517963409420,-0.02718805894255640
2022-11-10T02:47:45.775-07:00,-0.4813804626464840,0.1800113171339040,0.06179734319448470,0.02879583835601810,-0.00224989652633667,-0.01815759390592580
2022-11-10T02:47:45.785-07:00,-0.5528220534324650,0.164247453212738,0.07286224514245990,0.03255456686019900,0.01484003663063050,-0.01729083061218260
2022-11-10T02:47:45.795-07:00,-0.6182460784912110,0.1347646713256840,0.05815600603818890,0.04184162616729740,0.04152581095695500,-0.01847338676452640
2022-11-10T02:47:45.805-07:00,-0.7139182686805730,0.1528365761041640,0.05314499884843830,0.04906564950942990,0.05974236130714420,-0.01910888776183130
2022-11-10T02:47:45.815-07:00,-0.7427882552146910,0.1354067176580430,0.04852388054132460,0.05416965484619140,0.06747636198997500,-0.01763438805937770
2022-11-10T02:47:45.825-07:00,-0.743954598903656,0.1347695589065550,0.06363758444786070,0.04726958274841310,0.03248137235641480,-0.01564908027648930
2022-11-10T02:47:45.835-07:00,-0.7316630482673650,0.1464422047138210,0.05232261493802070,0.03098428249359130,0.05052679777145390,-0.007738351821899410
2022-11-10T02:47:45.845-07:00,-0.7085480093955990,0.161080464720726,0.02944792620837690,0.01845633983612060,0.09134921431541440,-0.00418388843536377
2022-11-10T02:47:45.855-07:00,-0.67359858751297,0.170610323548317,-0.00677798967808485,0.01456642150878910,0.1230222284793850,-0.003636416047811510
2022-11-10T02:47:45.865-07:00,-0.6101734042167660,0.1739739924669270,-0.0446111187338829,0.01299655437469480,0.1302050650119780,-0.004207968711853030
2022-11-10T02:47:45.875-07:00,-0.5260896682739260,0.1892770379781720,-0.07939919084310530,0.01116442680358890,0.1226192712783810,0.002174738794565200
2022-11-10T02:47:45.885-07:00,-0.4301426410675050,0.2175979316234590,-0.103723980486393,0.01002144813537600,0.1159623265266420,0.007751166820526120
2022-11-10T02:47:45.895-07:00,-0.3564321994781490,0.2402933835983280,-0.1167798563838010,0.01009857654571530,0.1016948223114010,0.01170587539672850
2022-11-10T02:47:45.905-07:00,-0.3061592280864720,0.2499841451644900,-0.1108111813664440,0.01398378610610960,0.07331755757331850,0.01019955053925510
2022-11-10T02:47:45.915-07:00,-0.2755411267280580,0.2393898218870160,-0.0909021869301796,0.01874339580535890,0.04714471101760860,0.006753865629434590
2022-11-10T02:47:45.925-07:00,-0.2328915894031530,0.2193209677934650,-0.06824667751789090,0.02115321159362790,0.03525751829147340,0.004540808498859410
2022-11-10T02:47:45.935-07:00,-0.1866002529859540,0.1968380212783810,-0.04570541530847550,0.02253305912017820,0.0167391300201416,0.005455136299133300
2022-11-10T02:47:45.945-07:00,-0.1421306282281880,0.1781136989593510,-0.037546556442976,0.01612144708633420,0.002303212881088260,0.005222082138061520
2022-11-10T02:47:45.955-07:00,-0.09305071085691450,0.1537644267082210,-0.02838394790887830,0.008890509605407720,-0.004517078399658200,0.001584112644195560
2022-11-10T02:47:45.965-07:00,-0.04593978822231290,0.1298728138208390,-0.04613418504595760,0.003349483013153080,-0.01538693904876710,-0.0007630623877048490
2022-11-10T02:47:45.975-07:00,-0.009948763065040110,0.1024696826934810,-0.0700158104300499,-0.0004656314849853520,-0.03046488761901860,-0.008913397789001470
2022-11-10T02:47:45.985-07:00,0.004697423428297040,0.07952509075403210,-0.08437664061784740,-0.004553079605102540,-0.04133248329162600,-0.01346892490983010
2022-11-10T02:47:45.995-07:00,-0.0235949344933033,0.06755124777555470,-0.06595582515001300,-0.004731059074401860,-0.04244029521942140,-0.01713847741484640
2022-11-10T02:47:46.006-07:00,-0.03594231605529790,0.03873308375477790,-0.05424191057682040,0.006084144115448000,-0.0336172878742218,-0.0167618952691555
2022-11-10T02:47:46.016-07:00,-0.03357875719666480,0.01772686466574670,-0.0484471395611763,0.0107453465461731,-0.03408432006835940,-0.01523786410689350
2022-11-10T02:47:46.026-07:00,-0.02967176958918570,0.004826911725103860,-0.04207872599363330,0.01206821203231810,-0.0225432813167572,-0.01081716641783710
2022-11-10T02:47:46.036-07:00,-0.01800419390201570,0.0009698558133095500,-0.03263195604085920,0.006818830966949460,-0.00838199257850647,-0.0159066841006279
2022-11-10T02:47:46.046-07:00,-0.01373691111803060,0.005656120367348190,-0.02306961081922050,0.002359747886657720,0.005781114101409910,-0.01796483621001240
2022-11-10T02:47:46.056-07:00,-0.01721526496112350,0.01168605033308270,-0.0186623465269804,0.002829909324646000,0.02061143517494200,-0.0198749266564846
2022-11-10T02:47:46.066-07:00,-0.02309645712375640,0.02589627727866170,-0.02063974365592000,0.005035638809204100,0.028830885887146,-0.02567076683044430
2022-11-10T02:47:46.076-07:00,-0.04345392435789110,0.02578762173652650,-0.02155587077140810,0.005022764205932620,0.03718903660774230,-0.02857046946883200
2022-11-10T02:47:46.086-07:00,-0.04751221835613250,0.03127096965909000,-0.02515380084514620,0.004113852977752690,0.04145416617393490,-0.02398359403014180
2022-11-10T02:47:46.096-07:00,-0.04811302572488790,0.03470218554139140,-0.02634556591510770,0.002471804618835450,0.04083681106567380,-0.02139550447463990
2022-11-10T02:47:46.106-07:00,-0.0327349379658699,0.03700588643550870,-0.02554475329816340,0.002941131591796880,0.03921404480934140,-0.01527094468474390
2022-11-10T02:47:46.116-07:00,-0.009327881038188930,0.04405207931995390,-0.0293048694729805,0.007036983966827390,0.0364832878112793,-0.009933706372976300
2022-11-10T02:47:46.126-07:00,0.01489403657615190,0.04319567233324050,-0.0435786172747612,0.01086008548736570,0.02661105990409850,-0.009420748800039290
2022-11-10T02:47:46.136-07:00,0.03516867756843570,0.03831649571657180,-0.05573727935552600,0.01220178604125980,0.02153167128562930,-0.007537249475717550
2022-11-10T02:47:46.146-07:00,0.05664258450269700,0.03088437765836720,-0.06431291997432710,0.01488101482391360,0.01269260048866270,-0.006748680025339130
2022-11-10T02:47:46.156-07:00,0.07671376317739490,0.0249447301030159,-0.06896492838859560,0.01388496160507200,0.009410053491592410,-0.005713991820812230
2022-11-10T02:47:46.166-07:00,0.08785232901573180,0.0225080382078886,-0.07052447646856310,0.01156520843505860,0.005762308835983280,-0.005614399909973150
2022-11-10T02:47:46.176-07:00,0.09481623768806460,0.01722006499767300,-0.06965069472789760,0.009299397468566900,-0.004459410905838010,-0.007628500461578370
2022-11-10T02:47:46.186-07:00,0.1088086068630220,0.01184833608567720,-0.06528656929731370,0.009790360927581790,-0.008975058794021610,-0.01113628596067430
2022-11-10T02:47:46.196-07:00,0.1221760809421540,0.00795479491353035,-0.0623088926076889,0.007506787776947020,-0.005841940641403200,-0.009887572377920150
2022-11-10T02:47:46.206-07:00,0.1361846327781680,0.002980476012453440,-0.06360664963722230,0.007979214191436770,0.0008969306945800780,-0.01173018664121630
2022-11-10T02:47:46.217-07:00,0.149407759308815,-7.17728398740292E-05,-0.05882095173001290,0.007718980312347410,0.005866318941116330,-0.009244076907634740
2022-11-10T02:47:46.226-07:00,0.1551289856433870,-0.008904878981411460,-0.05462194234132770,0.007091104984283450,0.005201339721679690,-0.008996125310659410
2022-11-10T02:47:46.236-07:00,0.1601016223430630,-0.01366021949797870,-0.05523287132382390,0.008201360702514650,0.003509491682052610,-0.008822795003652570
2022-11-10T02:47:46.246-07:00,0.1544070988893510,-0.01348455063998700,-0.05631917715072630,0.01002812385559080,0.007457882165908810,-0.01119422167539600
2022-11-10T02:47:46.256-07:00,0.1443014591932300,-0.01539403665810820,-0.06146786734461780,0.009487688541412350,0.009764790534973150,-0.01459633558988570
2022-11-10T02:47:46.266-07:00,0.140900731086731,-0.01536221243441110,-0.06288094073534010,0.009473085403442380,0.009153276681900020,-0.01680009812116620
2022-11-10T02:47:46.276-07:00,0.1339650601148610,-0.01212300918996330,-0.06323859840631490,0.007518529891967770,0.007542848587036130,-0.0188944935798645
2022-11-10T02:47:46.287-07:00,0.1346399337053300,-0.01154194120317700,-0.06839661300182340,0.008070290088653560,0.01029586791992190,-0.01771455258131030
2022-11-10T02:47:46.297-07:00,0.1346348822116850,-0.002703175880014900,-0.07248695939779280,0.005048155784606930,0.01080390810966490,-0.01709222793579100
2022-11-10T02:47:46.307-07:00,0.1295826584100720,-0.004777312278747560,-0.07303610444068910,0.005385994911193850,0.01061764359474180,-0.01298224553465840
2022-11-10T02:47:46.329-07:00,0.1296774744987490,-0.00809827446937561,-0.07360202819108960,0.00711512565612793,0.005507141351699830,-0.0133967399597168
2022-11-10T02:47:46.331-07:00,0.119408056139946,-0.01047541201114660,-0.0602707751095295,0.005814969539642330,0.002059519290924070,-0.01212572678923610
2022-11-10T02:47:46.337-07:00,0.1044549345970150,-0.0115486653521657,-0.04561380296945570,0.004569292068481450,-0.001281112432479860,-0.01309442520141600
2022-11-10T02:47:46.347-07:00,0.08050329983234410,-0.01290531270205980,-0.03628954291343690,0.003888070583343510,-0.003742337226867680,-0.0178908035159111
2022-11-10T02:47:46.357-07:00,0.06312085688114170,-0.0156403798609972,-0.02871977351605890,0.005365729331970220,-0.004996001720428470,-0.01723789796233180
2022-11-10T02:47:46.367-07:00,0.04659374058246610,-0.01584564335644250,-0.02464167587459090,0.007790207862854000,-0.004181891679763790,-0.01812113076448440
2022-11-10T02:47:46.376-07:00,0.03816110640764240,-0.01802916824817660,-0.02531545422971250,0.009225785732269290,-0.001342147588729860,-0.01775276660919190
2022-11-10T02:47:46.387-07:00,0.03893548995256420,-0.01905655115842820,-0.02625688165426250,0.009541511535644530,0.0006858110427856450,-0.0159500315785408
2022-11-10T02:47:46.397-07:00,0.03117690235376360,-0.01569484174251560,-0.02838874235749250,0.008034944534301760,0.0008384287357330320,-0.01560819149017330
2022-11-10T02:47:46.407-07:00,0.028278648853302,-0.01057764329016210,-0.03074777126312260,0.005600810050964360,0.001974165439605710,-0.0176084041595459
2022-11-10T02:47:46.417-07:00,0.01311727240681650,-0.004862766247242690,-0.02746835350990300,0.00325542688369751,0.005854278802871700,-0.01819049939513210
2022-11-10T02:47:46.427-07:00,-0.007136398926377300,0.0003807980101555590,-0.01806739531457420,0.0004113912582397460,0.005395799875259400,-0.02084130048751830
2022-11-10T02:47:46.437-07:00,-0.02243652567267420,-0.004637130070477720,-0.003476202255114910,-0.001012206077575680,0.003256797790527340,-0.02123355865478520
2022-11-10T02:47:46.447-07:00,-0.03994797170162200,0.002664026105776430,0.007303208112716680,-0.0005800724029541020,0.004839539527893070,-0.02022839337587360
2022-11-10T02:47:46.457-07:00,-0.05325925350189210,0.00624198280274868,0.02610698901116850,-0.003232717514038090,0.007911175489425660,-0.0199962854385376
2022-11-10T02:47:46.467-07:00,-0.0564238503575325,0.008790861815214160,0.03672581166028980,-0.003420472145080570,0.01025542616844180,-0.01890993863344190
2022-11-10T02:47:46.477-07:00,-0.05672904849052430,0.01088463887572290,0.04150458797812460,-0.001475393772125240,0.01172614097595220,-0.01421427354216580
2022-11-10T02:47:46.487-07:00,-0.05618873238563540,0.0126522108912468,0.03895300999283790,0.002463996410369870,0.005576431751251220,-0.01454008370637890
2022-11-10T02:47:46.497-07:00,-0.05857705324888230,0.01118614058941600,0.03368714451789860,0.003883540630340580,0.002047121524810790,-0.01450925692915920
2022-11-10T02:47:46.507-07:00,-0.06673341989517210,0.01416851487010720,0.024398572742939,0.007617354393005370,0.002169668674468990,-0.01469267159700390
2022-11-10T02:47:46.517-07:00,-0.07009272277355190,0.01259591896086930,0.01343726739287380,0.007291674613952640,0.0005134046077728270,-0.01394414901733400
2022-11-10T02:47:46.527-07:00,-0.06721265614032750,0.01200482994318010,0.0030442806892097,0.01101601123809810,0.0006048679351806640,-0.01290923357009890
2022-11-10T02:47:46.537-07:00,-0.0562518797814846,0.01202906481921670,-0.00800730474293232,0.01066923141479490,-0.001098841428756710,-0.0111544132232666
2022-11-10T02:47:46.547-07:00,-0.04037418216466900,0.008697250857949260,-0.02182058803737160,0.010764479637146,-0.000620424747467041,-0.008390486240386960
2022-11-10T02:47:46.557-07:00,-0.02312621846795080,0.003754690289497380,-0.03343277052044870,0.01161110401153560,0.001251369714736940,-0.005805730819702150
2022-11-10T02:47:46.567-07:00,-0.002653865143656730,0.004038216546177860,-0.04047789424657820,0.009543120861053470,0.002427250146865850,-0.006166040897369390
2022-11-10T02:47:46.577-07:00,0.01803277060389520,0.0004914191085845230,-0.04855925589799880,0.01057541370391850,0.005217790603637700,-0.004709653556346890
2022-11-10T02:47:46.587-07:00,0.03333289921283720,0.002358294790610670,-0.05101922154426580,0.00752866268157959,0.007700562477111820,-0.003396987915039060
2022-11-10T02:47:46.597-07:00,0.03973913192749020,0.001464005326852200,-0.05501103401184080,0.005521953105926510,0.01131150126457210,-0.004814803600311280
2022-11-10T02:47:46.607-07:00,0.04749312251806260,0.004791691899299620,-0.05921589583158490,0.005981743335723880,0.012611985206604,-0.007666468620300290
2022-11-10T02:47:46.617-07:00,0.05723176896572110,0.001933587482199070,-0.06648685783147810,0.00697636604309082,0.007905811071395870,-0.008027315139770510
2022-11-10T02:47:46.628-07:00,0.062713623046875,-0.002585796872153880,-0.07612138241529470,0.009665191173553470,0.005623430013656620,-0.00824439525604248
2022-11-10T02:47:46.637-07:00,0.06630382686853410,-0.005113136954605580,-0.0836368203163147,0.0102994441986084,0.004733920097351070,-0.008017655462026600
2022-11-10T02:47:46.647-07:00,0.0703413188457489,-0.005517537705600260,-0.09252139180898670,0.01118236780166630,0.003563910722732540,-0.007485620677471160
2022-11-10T02:47:46.657-07:00,0.07317998260259630,-0.001629855250939730,-0.0935315266251564,0.008112668991088870,0.004167914390563970,-0.008373141288757320
2022-11-10T02:47:46.667-07:00,0.06868023425340650,0.0112785529345274,-0.09551424533128740,0.005019128322601320,0.005207449197769170,-0.01028585061430930
2022-11-10T02:47:46.678-07:00,0.06358800083398820,0.01858173869550230,-0.09462848305702210,0.002372145652771000,0.003778845071792600,-0.01204227656126020
2022-11-10T02:47:46.688-07:00,0.04652193188667300,0.02128538116812710,-0.09589295089244840,0.004348635673522950,0.004156887531280520,-0.01513265818357470
2022-11-10T02:47:46.698-07:00,0.03646983578801160,0.02206728421151640,-0.09333737939596180,0.005364894866943360,-0.001020461320877080,-0.01731222122907640
2022-11-10T02:47:46.708-07:00,0.02095103077590470,0.01583605445921420,-0.09274323284626010,0.006556987762451170,-0.003218531608581540,-0.01506064832210540
2022-11-10T02:47:46.718-07:00,-0.0002245642244815830,0.01353934407234190,-0.08406292647123340,0.005922436714172360,0.001750558614730840,-0.01428962498903280
2022-11-10T02:47:46.728-07:00,-0.02249704487621780,0.007722666952759030,-0.06631561368703840,0.001587033271789550,0.007431298494338990,-0.01470404863357540
2022-11-10T02:47:46.738-07:00,-0.04462924599647520,-0.001292133238166570,-0.03281944245100020,-0.001927375793457030,0.001278221607208250,-0.01711248606443410
2022-11-10T02:47:46.748-07:00,-0.1000442355871200,-0.006291485391557220,0.0215188954025507,-0.006545960903167730,0.002942025661468510,-0.01728438585996630
2022-11-10T02:47:46.758-07:00,-0.1453350186347960,-0.00862707756459713,0.1017801761627200,-0.01353037357330320,0.009466230869293210,-0.02254831045866010
2022-11-10T02:47:46.768-07:00,-0.1829042583704000,0.005133508704602720,0.1858228892087940,-0.02044486999511720,-0.01461917161941530,-0.02211625128984450
2022-11-10T02:47:46.778-07:00,-0.225822702050209,0.003799531375989320,0.2616811692714690,-0.02126121520996090,-0.02745622396469120,-0.02278399467468260
2022-11-10T02:47:46.788-07:00,-0.2433237582445150,-0.04439666122198110,0.3723176717758180,-0.01850378513336180,-0.01259979605674740,-0.02619749307632450
2022-11-10T02:47:46.798-07:00,-0.2627837657928470,-0.03236369788646700,0.4604845345020290,-0.02351409196853640,0.03812611103057860,-0.009347792714834210
2022-11-10T02:47:46.808-07:00,-0.404022604227066,0.02074555866420270,0.5811994671821590,-0.04118967056274410,0.09727004170417790,-0.009663935750722890
2022-11-10T02:47:46.818-07:00,-0.5737985968589780,0.162326380610466,0.7235840559005740,-0.07112157344818120,0.1553595960140230,0.0004680156707763670
2022-11-10T02:47:46.828-07:00,-0.7923054695129400,0.3431040048599240,0.8709061741828920,-0.09947395324707030,0.1626991033554080,0.009849373251199720
2022-11-10T02:47:46.838-07:00,-1.186043620109560,0.4994738698005680,1.020790100097660,-0.1064615249633790,0.1339313685894010,0.02792072296142580
2022-11-10T02:47:46.849-07:00,-1.649879336357120,0.6727628707885740,1.185223817825320,-0.1213765144348150,0.1802243590354920,0.03005719929933550
2022-11-10T02:47:46.858-07:00,-1.935712933540340,0.7606884837150570,1.445099949836730,-0.1583443284034730,0.2710016965866090,0.0597069263458252
2022-11-10T02:47:46.868-07:00,-2.012668132781980,0.8373902440071110,1.832123517990110,-0.1728573441505430,0.444121778011322,0.05237632989883420
2022-11-10T02:47:46.878-07:00,-1.93729043006897,0.9279728531837460,2.318384408950810,-0.1371487379074100,0.7099230289459230,0.05069261789321900
2022-11-10T02:47:46.888-07:00,-2.070616245269780,1.044711232185360,2.990624904632570,-0.1100466251373290,0.9928332567214970,0.07314378023147580
2022-11-10T02:47:46.898-07:00,-2.458229303359990,1.221741676330570,3.846221446990970,-0.1401760578155520,1.359262943267820,0.01629197597503660
2022-11-10T02:47:46.908-07:00,-2.936049699783330,1.396552562713620,4.704206943511960,-0.2150090336799620,1.83305811882019,-0.01270770840346810
2022-11-10T02:47:46.918-07:00,-3.120084524154660,1.553889155387880,5.505140781402590,-0.2488545179367070,2.288455247879030,0.07633006572723390
2022-11-10T02:47:46.928-07:00,-2.9370436668396,1.460937976837160,6.413623332977300,-0.179901123046875,2.598783493041990,0.07563000917434690
2022-11-10T02:47:46.938-07:00,-2.951871633529660,0.9666202664375310,7.332396507263180,0.02861744165420530,2.918231964111330,0.1522067785263060
2022-11-10T02:47:46.949-07:00,-2.464662075042730,0.1809023320674900,8.446529388427730,0.3081072568893430,3.310669898986820,0.2493633031845090
2022-11-10T02:47:46.959-07:00,-1.475860953330990,-0.694708526134491,9.884379386901860,0.4727975130081180,3.660866737365720,0.1536743640899660
2022-11-10T02:47:46.969-07:00,-0.5525152683258060,-1.717216730117800,10.99769115448000,0.2651050090789800,4.06178092956543,0.1175582408905030
2022-11-10T02:47:46.979-07:00,0.4869428873062130,-2.384864330291750,11.60696697235110,-0.3305248916149140,4.376889228820800,0.1864873170852660
2022-11-10T02:47:46.989-07:00,1.332284808158880,-2.810291290283200,11.94404220581060,-1.148789405822750,4.117806434631350,0.1874408721923830
2022-11-10T02:47:46.999-07:00,2.016761779785160,-3.141725778579710,12.22694492340090,-1.818694472312930,3.511160850524900,0.2880430221557620
2022-11-10T02:47:47.009-07:00,2.868442535400390,-3.544079065322880,12.12275505065920,-2.197826623916630,2.930065393447880,0.3708658218383790
2022-11-10T02:47:47.019-07:00,4.073482513427730,-3.78427267074585,11.61628437042240,-2.578197240829470,2.313742399215700,0.4052548408508300
2022-11-10T02:47:47.029-07:00,5.023632526397710,-3.67841649055481,10.74007606506350,-3.019532203674320,1.547839522361760,0.5860172510147100
2022-11-10T02:47:47.039-07:00,5.259195327758790,-3.321511745452880,9.756970405578610,-3.430546522140500,0.6998662352561950,0.768241286277771
2022-11-10T02:47:47.049-07:00,4.933554649353030,-2.787578105926510,8.331169128417970,-3.789261817932130,-0.0865134596824646,0.851628303527832
2022-11-10T02:47:47.059-07:00,4.198494434356690,-1.496620178222660,7.805414199829100,-4.042000770568850,-1.044695019721990,0.8993840217590330
2022-11-10T02:47:47.069-07:00,2.67219066619873,-0.4980673491954800,6.904631614685060,-3.945608854293820,-1.84181272983551,0.947356104850769
2022-11-10T02:47:47.079-07:00,1.416467308998110,0.1424878835678100,5.565267562866210,-3.54496431350708,-2.291638374328610,1.00447154045105
2022-11-10T02:47:47.089-07:00,0.4830258786678310,0.2671160697937010,4.508523941040040,-3.070807695388790,-2.649377107620240,0.9022172689437870
2022-11-10T02:47:47.099-07:00,-0.1519321948289870,0.2289391458034520,3.4517502784729,-2.653388500213620,-2.872400760650640,0.8130985498428350
2022-11-10T02:47:47.109-07:00,-0.4807876646518710,0.2126334756612780,2.28895115852356,-2.344008922576900,-2.971300840377810,0.7808717489242550
2022-11-10T02:47:47.119-07:00,-0.2904504835605620,0.1873331665992740,1.218639850616460,-2.113203048706060,-2.657205581665040,0.6692022681236270
2022-11-10T02:47:47.129-07:00,0.2494688183069230,0.1449975669384000,0.4603739976882940,-1.900933861732480,-2.123208045959470,0.5083889365196230
2022-11-10T02:47:47.139-07:00,0.5982350707054140,0.09835469722747800,-0.006405147258192300,-1.634989857673650,-1.702840685844420,0.400171160697937
2022-11-10T02:47:47.150-07:00,0.5224195122718810,0.09156407415866850,-0.2562690377235410,-1.330820918083190,-1.420580148696900,0.4428780078887940
2022-11-10T02:47:47.159-07:00,0.08476625382900240,0.09321736544370650,-0.3937499225139620,-1.051201820373540,-1.196845412254330,0.5683389902114870
2022-11-10T02:47:47.169-07:00,-0.3152979016304020,0.04887985438108440,-0.4354822337627410,-0.8434410095214840,-0.9141460657119750,0.6302028298377990
2022-11-10T02:47:47.179-07:00,-0.4514437615871430,0.004490554332733150,-0.3663257956504820,-0.7127434015274050,-0.6352392435073850,0.5371924042701720
2022-11-10T02:47:47.189-07:00,-0.4193626642227170,0.009452955797314640,-0.5364007949829100,-0.6308711171150210,-0.3735753893852230,0.3669805228710180
2022-11-10T02:47:47.201-07:00,-0.1719038784503940,0.01499419473111630,-0.549548327922821,-0.5582700371742250,-0.1736816763877870,0.1978204548358920
2022-11-10T02:47:47.210-07:00,0.2073601186275480,-0.0516330674290657,-0.5149429440498350,-0.3794404864311220,-0.01676404476165770,0.04308798909187320
2022-11-10T02:47:47.219-07:00,0.5095210075378420,-0.1739568561315540,-0.4206188321113590,-0.1706691980361940,0.08993238210678100,-0.07282114028930660
2022-11-10T02:47:47.230-07:00,0.6448178291320800,-0.2798467874526980,-0.2348401844501500,0.004105508327484130,0.1496537923812870,-0.1366121470928190
2022-11-10T02:47:47.240-07:00,0.6629414558410650,-0.3224951922893520,-0.1301734298467640,0.108376681804657,0.1573038697242740,-0.1718263328075410
2022-11-10T02:47:47.250-07:00,0.532701849937439,-0.3240756094455720,-0.1445765942335130,0.1513485908508300,0.1006467342376710,-0.1636968851089480
2022-11-10T02:47:47.260-07:00,0.2573011517524720,-0.3003010451793670,-0.1556518822908400,0.1582422852516170,0.0544353723526001,-0.1641586124897000
2022-11-10T02:47:47.270-07:00,-0.0169281754642725,-0.2161891907453540,-0.1730372756719590,0.1401457786560060,0.04649102687835690,-0.1795292794704440
2022-11-10T02:47:47.280-07:00,-0.1224372908473020,-0.1805334538221360,-0.3757730722427370,0.09649473428726200,0.03354960680007940,-0.2216896712780000
2022-11-10T02:47:47.290-07:00,-0.2366113662719730,-0.1433577686548230,-0.3928303718566900,0.09300857782363890,-0.02935189008712770,-0.2379805743694310
2022-11-10T02:47:47.300-07:00,-0.2453225702047350,-0.08327870815992360,-0.3191691935062410,0.1046750545501710,-0.0002130270004272460,-0.2347004413604740
2022-11-10T02:47:47.310-07:00,-0.1549475938081740,0.02673640474677090,-0.2547643482685090,0.0981065034866333,0.06473731994628910,-0.2095935344696050
2022-11-10T02:47:47.320-07:00,-0.09387066215276720,0.1212730258703230,-0.2163229584693910,0.0664326548576355,0.1240864396095280,-0.1916428506374360
2022-11-10T02:47:47.330-07:00,-0.06603986024856570,0.1846847981214520,-0.1674036234617230,0.05598783493041990,0.1313192844390870,-0.1697735190391540
2022-11-10T02:47:47.340-07:00,-0.07984249293804170,0.180005356669426,-0.09319144487380980,0.07024985551834110,0.1047082543373110,-0.1450950503349300
2022-11-10T02:47:47.350-07:00,-0.1268690973520280,0.1647240966558460,-0.06574623286724090,0.08919131755828860,0.1091709136962890,-0.09985148906707760
2022-11-10T02:47:47.360-07:00,-0.1506473869085310,0.163319006562233,-0.05855729803442960,0.07433807849884030,0.1381343007087710,-0.06544968485832210
2022-11-10T02:47:47.370-07:00,-0.1659324467182160,0.1623507887125020,-0.04882797226309780,0.04279708862304690,0.1571774482727050,-0.04985183477401730
2022-11-10T02:47:47.380-07:00,-0.1651199162006380,0.1359905451536180,-0.03963181003928190,0.02775800228118900,0.1525102853775020,-0.03832566738128660
2022-11-10T02:47:47.390-07:00,-0.1187590658664700,0.07773178070783620,-0.02360277622938160,0.03425097465515140,0.1392753720283510,-0.03289443254470830
2022-11-10T02:47:47.400-07:00,-0.03032907098531720,0.03719926625490190,0.004810756072402,0.05030578374862670,0.1277059316635130,-0.01611217856407170
2022-11-10T02:47:47.410-07:00,0.1213152855634690,-0.01180765777826310,0.04721067845821380,0.06383305788040160,0.1289684772491460,-0.02231407165527340
2022-11-10T02:47:47.420-07:00,0.2510594427585600,-0.04754967615008350,0.08362247794866560,0.07574731111526490,0.1163602471351620,-0.04122307896614080
2022-11-10T02:47:47.431-07:00,0.3144880533218380,-0.08301140367984770,0.1106016337871550,0.08059251308441160,0.09167230129241940,-0.0493507981300354
2022-11-10T02:47:47.441-07:00,0.3451940417289730,-0.1205931305885320,0.1231405958533290,0.07368993759155270,0.05068916082382200,-0.05244004726409910
2022-11-10T02:47:47.451-07:00,0.3431406021118160,-0.1451545357704160,0.1164179742336270,0.06268590688705440,0.00926584005355835,-0.04541066288948060
2022-11-10T02:47:47.461-07:00,0.3254718780517580,-0.1292892843484880,0.1033623591065410,0.04798299074172970,-0.01064199209213260,-0.02707073092460630
2022-11-10T02:47:47.471-07:00,0.2865467667579650,-0.1126116961240770,0.09859371185302730,0.04155969619750980,-0.01532101631164550,-0.02154421806335450
2022-11-10T02:47:47.481-07:00,0.2141879051923750,-0.1066534072160720,0.1222758665680890,0.04314303398132320,-0.02311939001083370,-0.01888394355773930
2022-11-10T02:47:47.491-07:00,0.1386070847511290,-0.1235527321696280,0.1278280317783360,0.04074454307556150,-0.03912198543548580,-0.01908963918685910
2022-11-10T02:47:47.501-07:00,0.1099789142608640,-0.1315009444952010,0.1078868061304090,0.02102220058441160,-0.0490378737449646,-0.02435898780822750
2022-11-10T02:47:47.511-07:00,0.137747660279274,-0.1078618839383130,0.06914926320314410,-0.01364439725875850,-0.02580803632736210,-0.02918210625648500
2022-11-10T02:47:47.521-07:00,0.1953339874744420,-0.03630328178405760,0.04029444977641110,-0.04132938385009770,0.02109378576278690,-0.02670970559120180
2022-11-10T02:47:47.531-07:00,0.2557518780231480,0.03813783079385760,0.02205925062298780,-0.05236589908599850,0.04174208641052250,-0.03031125664711000
2022-11-10T02:47:47.541-07:00,0.2608544826507570,0.08087251335382460,0.02850782871246340,-0.04206281900405880,-0.009037256240844730,-0.0147709846496582
2022-11-10T02:47:47.551-07:00,0.2086154371500020,0.09526219964027410,0.07043077796697620,-0.02178478240966800,-0.06672608852386480,0.01712283492088320
2022-11-10T02:47:47.561-07:00,0.09774644672870640,0.07130520790815350,0.09441068023443220,-0.009353280067443850,-0.08171987533569340,0.03323489427566530
2022-11-10T02:47:47.571-07:00,0.004922093823552130,0.0574214793741703,0.07464069873094560,-0.02244859933853150,-0.061195969581604,0.03530469536781310
2022-11-10T02:47:47.581-07:00,-0.02552955597639080,0.06055229529738430,0.04458186775445940,-0.05408984422683720,-0.04386997222900390,0.02858588099479680
2022-11-10T02:47:47.591-07:00,-0.04417514428496360,0.04420474544167520,0.006531690247356890,-0.07184886932373050,-0.03808677196502690,0.02550560235977170
2022-11-10T02:47:47.601-07:00,-0.04402760416269300,0.02559776976704600,-0.02619163505733010,-0.06175988912582400,-0.01486396789550780,0.03332921862602230
2022-11-10T02:47:47.611-07:00,-0.002658659592270850,0.009283046238124370,-0.0371159240603447,-0.04746997356414800,0.001835644245147710,0.04699662327766420
2022-11-10T02:47:47.621-07:00,0.05525364354252820,-0.02348129265010360,-0.04407742619514470,-0.03461682796478270,-0.01004701852798460,0.05197155475616460
2022-11-10T02:47:47.631-07:00,0.1026312708854680,-0.06706658005714420,-0.05481742322444920,-0.0254591703414917,-0.03673160076141360,0.04900580644607540
2022-11-10T02:47:47.641-07:00,0.1423408836126330,-0.09141480177640920,-0.07721567153930660,-0.02926868200302120,-0.04840797185897830,0.03863707184791570
2022-11-10T02:47:47.651-07:00,0.1424704045057300,-0.09244395047426220,-0.1116564646363260,-0.04013758897781370,-0.05967313051223760,0.02587661147117620
2022-11-10T02:47:47.661-07:00,0.07231501489877700,-0.1051136702299120,-0.1682957857847210,-0.04889947175979610,-0.07288038730621340,0.03386673331260680
2022-11-10T02:47:47.671-07:00,0.03343446552753450,-0.1103182807564740,-0.2101241797208790,-0.04274123907089230,-0.07140481472015380,0.0396324098110199
2022-11-10T02:47:47.681-07:00,-0.002439914271235470,-0.1192161664366720,-0.2253617346286770,-0.02954554557800290,-0.07517200708389280,0.03240486979484560
2022-11-10T02:47:47.691-07:00,-0.00166686624288559,-0.1317340284585950,-0.2419327199459080,-0.01282680034637450,-0.07032442092895510,0.02309894561767580
2022-11-10T02:47:47.701-07:00,0.03662166744470600,-0.147445872426033,-0.2706850171089170,-0.002082586288452150,-0.06216573715209960,0.01952627301216130
2022-11-10T02:47:47.711-07:00,0.07814724743366240,-0.1431075632572170,-0.2726107239723210,0.002197146415710450,-0.0445481538772583,0.0226510763168335
2022-11-10T02:47:47.721-07:00,0.1225527971982960,-0.1339303106069570,-0.2748301923274990,0.0004057884216308590,-0.01236367225646970,0.01709026098251340
2022-11-10T02:47:47.731-07:00,0.1471070647239690,-0.1165051758289340,-0.2649804949760440,-0.005051672458648680,0.002305209636688230,0.008780926465988160
2022-11-10T02:47:47.741-07:00,0.1039441525936130,-0.1078943759202960,-0.2458110749721530,-0.01093769073486330,-0.004666805267333980,0.009272873401641850
2022-11-10T02:47:47.752-07:00,0.04746293276548390,-0.102372482419014,-0.22933728992939,-0.01440650224685670,-0.009252727031707760,0.01465550065040590
2022-11-10T02:47:47.762-07:00,-0.00995828490704298,-0.09225140511989590,-0.2162236273288730,-0.009307563304901120,-0.003765106201171880,0.004560112953186040
2022-11-10T02:47:47.772-07:00,-0.04390603303909300,-0.08305826783180240,-0.2004403918981550,-0.002808272838592530,0.01106888055801390,0.005148917436599730
2022-11-10T02:47:47.782-07:00,-0.04686107486486440,-0.07958337664604190,-0.1969194263219830,0.00605243444442749,0.02230274677276610,0.0005826652050018310
2022-11-10T02:47:47.792-07:00,-0.02204344235360620,-0.08564436435699460,-0.1850377470254900,0.006882786750793460,0.02022445201873780,-0.002274483442306520
2022-11-10T02:47:47.802-07:00,0.00950915738940239,-0.08922258764505390,-0.1729429960250850,0.004517436027526860,0.009235024452209470,-0.004191815853118900
2022-11-10T02:47:47.812-07:00,0.05608109012246130,-0.09143716841936110,-0.1772578507661820,6.61015510559082E-05,0.01331675052642820,-0.004702657461166380
2022-11-10T02:47:47.822-07:00,0.08793781697750090,-0.08487673848867420,-0.1656163781881330,-0.002764344215393070,0.03390324115753170,-0.01071912050247190
2022-11-10T02:47:47.832-07:00,0.07860001176595690,-0.09130297601222990,-0.1430673897266390,-4.05311584472656E-05,0.03804200887680050,-0.0145803689956665
2022-11-10T02:47:47.842-07:00,0.04743783175945280,-0.1090428307652470,-0.1287321299314500,0.003468334674835210,0.02172809839248660,-0.003943890333175660
2022-11-10T02:47:47.852-07:00,0.01998719573020940,-0.1238717511296270,-0.1270404756069180,0.005207717418670650,0.006658732891082760,-0.0004247725009918210
2022-11-10T02:47:47.862-07:00,0.03372830897569660,-0.1382160633802410,-0.127509206533432,0.001676261425018310,0.006780862808227540,-0.006954669952392580
2022-11-10T02:47:47.872-07:00,0.07446625083684920,-0.1461553126573560,-0.1326395124197010,-0.004316449165344240,0.01412636041641240,-0.01655140519142150
2022-11-10T02:47:47.882-07:00,0.1158107668161390,-0.1473971456289290,-0.1395661383867260,-0.006290972232818600,0.02832478284835820,-0.0242936909198761
2022-11-10T02:47:47.892-07:00,0.1325274556875230,-0.1434096246957780,-0.1388627886772160,-0.005341827869415280,0.04049503803253170,-0.03011795878410340
2022-11-10T02:47:47.902-07:00,0.1448786705732350,-0.1306711882352830,-0.1350715160369870,-0.004775583744049070,0.04592287540435790,-0.0308833122253418
2022-11-10T02:47:47.912-07:00,0.1233408600091930,-0.1175929084420200,-0.132536455988884,-0.008084416389465330,0.02808922529220580,-0.02823269367218020
2022-11-10T02:47:47.922-07:00,0.06754229962825780,-0.09927835315465930,-0.1203703284263610,-0.009289681911468510,0.004013776779174810,-0.02153399586677550
2022-11-10T02:47:47.932-07:00,0.00456836074590683,-0.08119571954011920,-0.1053152158856390,-0.009944021701812740,-0.002216160297393800,-0.01367691159248350
2022-11-10T02:47:47.942-07:00,-0.0374014601111412,-0.06705806404352190,-0.1104721575975420,-0.007625281810760500,0.0003058910369873050,-0.013700932264328
2022-11-10T02:47:47.952-07:00,-0.02393278852105140,-0.06920323520898820,-0.104724258184433,-0.006879508495330810,0.0005498528480529790,-0.01649558544158940
2022-11-10T02:47:47.962-07:00,0.03183912858366970,-0.08005561679601670,-0.1075477451086040,-0.001111686229705810,0.0001209378242492680,-0.01491925120353700
2022-11-10T02:47:47.972-07:00,0.08583864569664000,-0.08649507910013200,-0.1165329813957210,0.006750404834747310,0.008113324642181400,-0.01080384850502010
2022-11-10T02:47:47.982-07:00,0.1241381019353870,-0.08699575066566470,-0.1196238473057750,0.006776630878448490,0.02088648080825810,-0.006424635648727420
2022-11-10T02:47:47.992-07:00,0.1240212619304660,-0.09304226189851760,-0.1133305281400680,0.004027605056762700,0.02293980121612550,-0.001688957214355470
2022-11-10T02:47:48.002-07:00,0.08976554870605470,-0.1101541370153430,-0.09787327796220780,0.002664923667907720,0.01543712615966800,0.0008924603462219240
2022-11-10T02:47:48.013-07:00,0.05700377374887470,-0.1242568045854570,-0.08414813876152040,0.0002052187919616700,0.008722186088562010,-0.001540988683700560
2022-11-10T02:47:48.022-07:00,0.03126538544893270,-0.1353816241025930,-0.07376927137374880,-0.003992319107055660,0.003349423408508300,0.001849353313446050
2022-11-10T02:47:48.032-07:00,-0.0001081842929124830,-0.1441158056259160,-0.07545265555381780,-0.006533443927764890,-0.000723421573638916,0.009777426719665530
2022-11-10T02:47:48.043-07:00,-0.009232440032064920,-0.1507388204336170,-0.07618635892868040,-0.01158338785171510,5.44190406799316E-05,0.0181637704372406
2022-11-10T02:47:48.053-07:00,-0.009122185409069060,-0.1582348197698590,-0.07471203058958050,-0.01186174154281620,-0.002079308032989500,0.02442130446434020
2022-11-10T02:47:48.063-07:00,-0.0008269716054201130,-0.1857676357030870,-0.08266396820545200,-0.00974118709564209,-0.01707834005355840,0.02546989917755130
2022-11-10T02:47:48.073-07:00,0.05107544362545010,-0.2103489488363270,-0.07864232361316680,-0.005418837070465090,-0.01983726024627690,0.02600011229515080
2022-11-10T02:47:48.083-07:00,0.1286642402410510,-0.2394916564226150,-0.09385190159082410,-0.008186697959899900,-0.007200837135314940,0.02243524789810180
2022-11-10T02:47:48.093-07:00,0.2054020762443540,-0.2620426714420320,-0.1198771148920060,-0.01298224925994870,0.002597033977508550,0.007356226444244390
2022-11-10T02:47:48.103-07:00,0.2548244595527650,-0.2668435573577880,-0.1334799975156780,-0.02286148071289060,0.00588756799697876,0.005979657173156740
2022-11-10T02:47:48.113-07:00,0.281194269657135,-0.269739180803299,-0.1422175765037540,-0.0252525806427002,0.007109880447387700,0.005315005779266360
2022-11-10T02:47:48.123-07:00,0.2698683738708500,-0.2726417481899260,-0.156578928232193,-0.02091944217681890,-0.001524746417999270,0.008888930082321170
2022-11-10T02:47:48.133-07:00,0.2322631925344470,-0.274854838848114,-0.1608551740646360,-0.0176432728767395,-0.004104256629943850,0.01387828588485720
2022-11-10T02:47:48.143-07:00,0.1712746769189840,-0.2615763247013090,-0.1455462574958800,-0.012309730052948,-0.01019018888473510,0.02427604794502260
2022-11-10T02:47:48.153-07:00,0.1218581348657610,-0.281769722700119,-0.1485457718372350,-0.01035267114639280,-0.01808995008468630,0.01841741800308230
2022-11-10T02:47:48.163-07:00,0.1141054034233090,-0.2921661734580990,-0.1612991243600850,-0.01004332304000850,-0.03090000152587890,0.002450346946716310
2022-11-10T02:47:48.173-07:00,0.1404866725206380,-0.2847370207309720,-0.1717586815357210,-0.01184654235839840,-0.02572423219680790,-0.01310604810714720
2022-11-10T02:47:48.183-07:00,0.1746750771999360,-0.2702111303806310,-0.1962072998285290,-0.01860922574996950,-0.01606422662734990,-0.01790311932563780
2022-11-10T02:47:48.194-07:00,0.2263220697641370,-0.2434125989675520,-0.2091044634580610,-0.02574217319488530,-0.01231616735458370,-0.02146255970001220
2022-11-10T02:47:48.203-07:00,0.2622976303100590,-0.2113681137561800,-0.2363904118537900,-0.02911472320556640,-0.01946055889129640,-0.01772695779800420
2022-11-10T02:47:48.214-07:00,0.2618332803249360,-0.1767865270376210,-0.2609167695045470,-0.02643942832946780,-0.0316506028175354,-0.02047938108444210
2022-11-10T02:47:48.223-07:00,0.2346852868795400,-0.1584003269672390,-0.2913556396961210,-0.02534115314483640,-0.04901796579360960,-0.0230899453163147
2022-11-10T02:47:48.233-07:00,0.1700114756822590,-0.1411992460489270,-0.3297610878944400,-0.02244448661804200,-0.06985455751419070,-0.02377849817276000
2022-11-10T02:47:48.243-07:00,0.08943860977888110,-0.1256080269813540,-0.3760353922843930,-0.02813315391540530,-0.08846122026443480,-0.01685196161270140
2022-11-10T02:47:48.253-07:00,0.001464046537876130,-0.1238911151885990,-0.4347141683101650,-0.03107821941375730,-0.114406406879425,-0.01317697763442990
2022-11-10T02:47:48.263-07:00,-0.08405990898609160,-0.1143340989947320,-0.4949378371238710,-0.04232054948806760,-0.1359257698059080,-0.004156589508056640
2022-11-10T02:47:48.273-07:00,-0.1285039335489270,-0.1013212278485300,-0.5680650472640990,-0.0549464225769043,-0.1568071246147160,-0.002851724624633790
2022-11-10T02:47:48.283-07:00,-0.162187859416008,-0.09885273873806,-0.6556226015090940,-0.07525801658630370,-0.1949745416641240,-0.02482396364212040
2022-11-10T02:47:48.293-07:00,-0.1789776086807250,-0.07752179354429250,-0.7438498735427860,-0.09872764348983770,-0.2217406034469600,-0.0547386109828949
2022-11-10T02:47:48.303-07:00,-0.194774404168129,-0.03582760691642760,-0.8375979661941530,-0.1217793226242070,-0.247282087802887,-0.06848156452178960
2022-11-10T02:47:48.314-07:00,-0.2462818026542660,-0.006640159990638490,-0.9468491077423100,-0.1396408677101140,-0.282369077205658,-0.06069085001945500
2022-11-10T02:47:48.323-07:00,-0.2846337258815770,0.01879728958010670,-1.074998736381530,-0.1568692326545720,-0.3186943531036380,-0.03395038843154910
2022-11-10T02:47:48.333-07:00,-0.2986025214195250,0.0500422939658165,-1.217067837715150,-0.1666814088821410,-0.349506139755249,-0.006047725677490230
2022-11-10T02:47:48.344-07:00,-0.3259619772434240,0.0732291042804718,-1.351145148277280,-0.1754822731018070,-0.3720636367797850,0.02098363637924190
2022-11-10T02:47:48.354-07:00,-0.3826323747634890,0.08461671322584150,-1.491219997406010,-0.187407910823822,-0.3776077628135680,0.0364399254322052
2022-11-10T02:47:48.364-07:00,-0.4827443361282350,0.09067833423614500,-1.628173232078550,-0.2047938406467440,-0.382739245891571,0.05460327863693240
2022-11-10T02:47:48.374-07:00,-0.6343270540237430,0.1182434856891630,-1.778087973594670,-0.2291725873947140,-0.3913328647613530,0.07988327741622930
2022-11-10T02:47:48.384-07:00,-0.786286473274231,0.1592886596918110,-1.940428137779240,-0.2542979419231420,-0.3993851542472840,0.1162450909614560
2022-11-10T02:47:48.394-07:00,-0.936215877532959,0.2030639350414280,-2.068512439727780,-0.2742599546909330,-0.4150814414024350,0.1407382190227510
2022-11-10T02:47:48.404-07:00,-1.117947578430180,0.2185211926698690,-2.166471481323240,-0.2827343344688420,-0.4267048835754400,0.136478066444397
2022-11-10T02:47:48.414-07:00,-1.286237239837650,0.2071789503097530,-2.270391225814820,-0.2783433794975280,-0.4207155108451840,0.1278820633888250
2022-11-10T02:47:48.424-07:00,-1.414821863174440,0.1644570529460910,-2.398781538009640,-0.2675810754299160,-0.4106881618499760,0.1097062528133390
2022-11-10T02:47:48.434-07:00,-1.466219425201420,0.1250143498182300,-2.517132520675660,-0.2594993114471440,-0.402384877204895,0.09930557012557980
2022-11-10T02:47:48.444-07:00,-1.460244655609130,0.06305349618196490,-2.607785224914550,-0.2481894791126250,-0.3791083693504330,0.08731207251548770
2022-11-10T02:47:48.454-07:00,-1.370758771896360,0.004175569862127300,-2.731168985366820,-0.2387215197086330,-0.3323673605918880,0.08631423115730290
2022-11-10T02:47:48.464-07:00,-1.159623146057130,-0.06317870318889620,-2.921762704849240,-0.2222913205623630,-0.2597312927246090,0.08771809935569760
2022-11-10T02:47:48.474-07:00,-0.7589347362518310,-0.08948687463998800,-3.134967088699340,-0.215734988451004,-0.1861758828163150,0.07683488726615910
2022-11-10T02:47:48.484-07:00,-0.3155178427696230,-0.09074494987726210,-3.277933835983280,-0.2088849246501920,-0.1495845317840580,0.06168469786643980
2022-11-10T02:47:48.494-07:00,0.06207375973463060,-0.1240508109331130,-3.367762804031370,-0.1968434751033780,-0.148364782333374,0.06519749760627750
2022-11-10T02:47:48.504-07:00,0.2519305348396300,-0.2250232249498370,-3.407414436340330,-0.1666944473981860,-0.172055721282959,0.09471800923347470
2022-11-10T02:47:48.514-07:00,0.17299984395504,-0.3607678413391110,-3.379596948623660,-0.1338899880647660,-0.1933625936508180,0.1133123338222500
2022-11-10T02:47:48.524-07:00,-0.1426846086978910,-0.5052803158760070,-3.349352121353150,-0.1130286008119580,-0.1885901093482970,0.1061262786388400
2022-11-10T02:47:48.534-07:00,-0.476646363735199,-0.6335269212722780,-3.378349542617800,-0.1080293506383900,-0.1821723580360410,0.09636202454566960
2022-11-10T02:47:48.544-07:00,-0.7630395293235780,-0.7061795592308040,-3.430424690246580,-0.1205601841211320,-0.194225013256073,0.09212514758110050
2022-11-10T02:47:48.554-07:00,-0.9608678817749020,-0.717561662197113,-3.456141471862790,-0.1403065621852880,-0.1804946660995480,0.07491198182106020
2022-11-10T02:47:48.564-07:00,-1.057101130485540,-0.7215622663497930,-3.478843212127690,-0.1502549946308140,-0.1094316244125370,0.06645092368125920
2022-11-10T02:47:48.574-07:00,-0.8757308721542360,-0.731689453125,-3.56195855140686,-0.1513299494981770,-0.0003573894500732420,0.05119845271110540
2022-11-10T02:47:48.585-07:00,-0.5202524065971380,-0.7276347875595090,-3.659762859344480,-0.14865842461586,0.09572064876556400,0.06176005303859710
2022-11-10T02:47:48.594-07:00,-0.1074012145400050,-0.715707540512085,-3.739169836044310,-0.1556756347417830,0.195416271686554,0.0602668821811676
2022-11-10T02:47:48.604-07:00,0.3553690910339360,-0.7185760140419010,-3.79372239112854,-0.1626297682523730,0.2600727677345280,0.07893694937229160
2022-11-10T02:47:48.615-07:00,0.5714895129203800,-0.7418268918991090,-3.679666996002200,-0.1586321443319320,0.2390910387039190,0.09621085226535800
2022-11-10T02:47:48.625-07:00,0.4956584572792050,-0.7433603405952450,-3.512197256088260,-0.1450681984424590,0.2136297821998600,0.09756428003311160
2022-11-10T02:47:48.635-07:00,0.2315083295106890,-0.7566239833831790,-3.431164503097530,-0.1309193968772890,0.182145357131958,0.1010123789310460
2022-11-10T02:47:48.645-07:00,-0.09413927793502810,-0.7839243412017820,-3.355900526046750,-0.1200107634067540,0.1306008100509640,0.08277896046638490
2022-11-10T02:47:48.655-07:00,-0.4129559695720670,-0.7714593410491940,-3.253637552261350,-0.124993771314621,0.1032099723815920,0.03826595842838290
2022-11-10T02:47:48.665-07:00,-0.6307652592659000,-0.7330725193023680,-3.146222591400150,-0.1328951418399810,0.1088858842849730,0.007165268063545230
2022-11-10T02:47:48.675-07:00,-0.67792147397995,-0.6861749291419980,-3.065844058990480,-0.1427910029888150,0.135364294052124,-0.01620340347290040
2022-11-10T02:47:48.685-07:00,-0.5656825304031370,-0.6598432064056400,-3.070821285247800,-0.1541011333465580,0.1822599768638610,-0.02670830488204960
2022-11-10T02:47:48.695-07:00,-0.3438920080661770,-0.6516883969306950,-3.115715742111210,-0.1551077961921690,0.2384014129638670,-0.01357018947601320
2022-11-10T02:47:48.705-07:00,-0.08590494096279140,-0.6433460116386410,-3.098031044006350,-0.1517424583435060,0.2700157165527340,0.007008150219917300
2022-11-10T02:47:48.715-07:00,0.09429588913917540,-0.6385514140129090,-3.009575366973880,-0.1402831673622130,0.2656067609786990,0.03533557057380680
2022-11-10T02:47:48.725-07:00,0.209149494767189,-0.6368635296821590,-2.926772594451900,-0.1337846517562870,0.2537957429885860,0.06202830374240880
2022-11-10T02:47:48.735-07:00,0.2679128348827360,-0.6268232464790340,-2.880279779434200,-0.1345926523208620,0.2167474031448360,0.09108394384384160
2022-11-10T02:47:48.745-07:00,0.2148431986570360,-0.6063579320907590,-2.805991411209110,-0.1324185132980350,0.1738495826721190,0.09210205078125
2022-11-10T02:47:48.755-07:00,0.1087921634316440,-0.6134433150291440,-2.725017547607420,-0.1292968988418580,0.1565778851509090,0.04442855715751650
2022-11-10T02:47:48.765-07:00,-0.004610557109117510,-0.64821857213974,-2.637297868728640,-0.1262699961662290,0.1435008645057680,0.003417611122131350
2022-11-10T02:47:48.775-07:00,-0.08815811574459080,-0.6445767879486080,-2.523871421813970,-0.1253077983856200,0.1410251259803770,-0.01175093650817870
2022-11-10T02:47:48.785-07:00,-0.1329777836799620,-0.618522047996521,-2.419309139251710,-0.1362737417221070,0.14552241563797,-0.03710442781448360
2022-11-10T02:47:48.795-07:00,-0.1464514136314390,-0.5948343873023990,-2.303955554962160,-0.1464434862136840,0.1530856490135190,-0.06216436624526980
2022-11-10T02:47:48.805-07:00,-0.1198493614792820,-0.5748982429504400,-2.18161940574646,-0.1565421223640440,0.1790398359298710,-0.07193958759307860
2022-11-10T02:47:48.815-07:00,-0.08239183574914930,-0.5690306425094600,-2.027909755706790,-0.1601249575614930,0.201448917388916,-0.06923465430736540
2022-11-10T02:47:48.825-07:00,-0.02430669590830800,-0.5493354797363280,-1.873812675476070,-0.1665704846382140,0.2217836380004880,-0.04664081335067750
2022-11-10T02:47:48.835-07:00,-0.01369110401719810,-0.5181620717048650,-1.781508564949040,-0.173974871635437,0.2356830239295960,-0.04630511999130250
2022-11-10T02:47:48.845-07:00,0.01136471331119540,-0.5103222727775570,-1.70648729801178,-0.1704215407371520,0.2202276587486270,-0.04937750101089480
2022-11-10T02:47:48.856-07:00,-0.02844248525798320,-0.5145110487937930,-1.570483446121220,-0.1551414132118230,0.1947513818740850,-0.05546152591705320
2022-11-10T02:47:48.865-07:00,-0.1048826649785040,-0.4972630739212040,-1.463210463523870,-0.1365742683410650,0.1898959279060360,-0.06544864177703860
2022-11-10T02:47:48.875-07:00,-0.1980599164962770,-0.4797800481319430,-1.368692994117740,-0.1191579103469850,0.1804816722869870,-0.0664219856262207
2022-11-10T02:47:48.885-07:00,-0.3427968621253970,-0.4685127437114720,-1.264429688453670,-0.1069186329841610,0.1755185127258300,-0.05726402997970580
2022-11-10T02:47:48.895-07:00,-0.4873954653739930,-0.4486095011234280,-1.176342129707340,-0.09698450565338140,0.1707737445831300,-0.0626981258392334
2022-11-10T02:47:48.905-07:00,-0.5802342891693120,-0.434668630361557,-1.125572681427000,-0.09209054708480840,0.1662008762359620,-0.07193589210510250
2022-11-10T02:47:48.916-07:00,-0.6359798312187200,-0.4072317183017730,-1.070739269256590,-0.09067010879516600,0.1663773655891420,-0.07422889769077300
2022-11-10T02:47:48.926-07:00,-0.6383322477340700,-0.3515863120555880,-1.014912009239200,-0.08779448270797730,0.1821996569633480,-0.07763606309890750
2022-11-10T02:47:48.936-07:00,-0.6283582448959350,-0.3029238879680630,-0.9920114874839780,-0.08560532331466680,0.2050825953483580,-0.08825414627790450
2022-11-10T02:47:48.946-07:00,-0.6108505725860600,-0.2583779990673070,-0.9447571635246280,-0.07607275247573850,0.2122016549110410,-0.08823942393064500
2022-11-10T02:47:48.956-07:00,-0.5650066137313840,-0.2124438136816030,-0.8941083550453190,-0.06520724296569820,0.2150490880012510,-0.1023018360137940
2022-11-10T02:47:48.966-07:00,-0.5292502045631410,-0.1853645294904710,-0.8226701021194460,-0.05337870121002200,0.205052375793457,-0.09872431308031080
2022-11-10T02:47:48.976-07:00,-0.5289886593818670,-0.1210233941674230,-0.7732279896736150,-0.04676300287246700,0.1920076012611390,-0.07783245295286180
2022-11-10T02:47:48.986-07:00,-0.546870231628418,-0.05343476310372350,-0.7433210015296940,-0.04535013437271120,0.179598867893219,-0.06277548521757130
2022-11-10T02:47:48.996-07:00,-0.5534644722938540,0.002119309734553100,-0.7152273058891300,-0.03840118646621700,0.1567382216453550,-0.04567562788724900
2022-11-10T02:47:49.006-07:00,-0.5681406259536740,0.0282241478562355,-0.6859903335571290,-0.03037732839584350,0.1384561657905580,-0.03763294965028760
2022-11-10T02:47:49.016-07:00,-0.5782684683799740,0.07503170520067220,-0.6825876235961910,-0.01641160249710080,0.1310954689979550,-0.03505033999681470
2022-11-10T02:47:49.026-07:00,-0.5763049125671390,0.116680346429348,-0.6661514043807980,-0.01885902881622310,0.1332943439483640,-0.04225980490446090
2022-11-10T02:47:49.036-07:00,-0.5278046131134030,0.164746567606926,-0.6234587430953980,-0.009253621101379400,0.120836615562439,-0.04309450834989550
2022-11-10T02:47:49.046-07:00,-0.485354095697403,0.1725839823484420,-0.6190027594566350,0.0142669677734375,0.113202691078186,-0.05055779218673710
2022-11-10T02:47:49.056-07:00,-0.4440149366855620,0.138164222240448,-0.6137565970420840,0.02540642023086550,0.1203236281871800,-0.05755662173032760
2022-11-10T02:47:49.066-07:00,-0.392879843711853,0.1200033351778980,-0.5603194832801820,0.02613866329193120,0.1315045952796940,-0.06090163439512250
2022-11-10T02:47:49.076-07:00,-0.3641497790813450,0.1147019192576410,-0.501953125,0.02977597713470460,0.1355469822883610,-0.06215297430753710
2022-11-10T02:47:49.086-07:00,-0.3468088805675510,0.1312816888093950,-0.4394644498825070,0.01772332191467290,0.1228694915771480,-0.05138527601957320
2022-11-10T02:47:49.097-07:00,-0.3154263198375700,0.1066968515515330,-0.156222864985466,0.01763486862182620,0.1135728359222410,-0.05394589155912400
2022-11-10T02:47:49.106-07:00,-0.2532918453216550,-0.3873719871044160,0.0178218949586153,0.07109522819519040,0.183943897485733,-0.0782550573348999
2022-11-10T02:47:49.116-07:00,-0.6735805869102480,-0.572202205657959,-0.3578787446022030,0.2229065299034120,0.4085431396961210,-0.1121809408068660
2022-11-10T02:47:49.126-07:00,-0.1387989223003390,-0.5752480626106260,-0.5366058945655820,0.3379580974578860,0.547671914100647,-0.04855197668075560
2022-11-10T02:47:49.136-07:00,-0.06087861955165860,-0.3845318257808690,-0.3165656924247740,0.08405005931854250,0.08140239119529720,-0.04792869091033940
2022-11-10T02:47:49.146-07:00,-0.1710802316665650,0.1074235290288930,-0.126278817653656,-0.1903512477874760,0.3390348851680760,-0.08092767000198360
2022-11-10T02:47:49.157-07:00,-0.1201486736536030,0.4603606164455410,-0.05702304840087890,-0.2402187585830690,0.7436585426330570,-0.0933678150177002
2022-11-10T02:47:49.166-07:00,0.04050865024328230,0.2471759021282200,-0.009137017652392390,-0.1351323127746580,0.4983006417751310,-0.05292689800262450
2022-11-10T02:47:49.176-07:00,0.08003998547792440,0.1045054048299790,-0.08065460622310640,0.02163940668106080,0.1696457266807560,0.002071265131235120
2022-11-10T02:47:49.187-07:00,0.05561826378107070,0.1241808384656910,-0.1119131967425350,0.05822378396987920,0.1208143532276150,-0.004299160093069080
2022-11-10T02:47:49.197-07:00,0.04757861420512200,0.1490175724029540,-0.01855475455522540,0.007837593555450440,0.1382225155830380,-0.02208685129880910
2022-11-10T02:47:49.207-07:00,0.03612009435892110,0.1889772415161130,0.1246500685811040,-0.01144689321517940,0.1011280715465550,-0.02531575784087180
2022-11-10T02:47:49.217-07:00,0.02288268692791460,0.2697745263576510,0.3129134476184850,-0.00156480073928833,0.06340140104293820,-0.02715050801634790
2022-11-10T02:47:49.227-07:00,0.02016732655465600,0.2950655221939090,0.5448087453842160,0.01763224601745610,0.02340030670166020,-0.01967751979827880
2022-11-10T02:47:49.237-07:00,-0.07367195188999180,0.31444251537323,0.6996332406997680,0.03139817714691160,-0.02661710977554320,-0.007970750331878660
2022-11-10T02:47:49.247-07:00,-0.1396171450614930,0.2262474149465560,0.7707625031471250,0.04423362016677860,-0.06415474414825440,0.01354967802762990
2022-11-10T02:47:49.257-07:00,-0.1661418676376340,0.1048995852470400,0.6096546053886410,0.05566537380218510,-0.07638272643089290,0.02884697914123540
2022-11-10T02:47:49.267-07:00,-0.1335668712854390,0.0758034810423851,0.4015988707542420,0.03416013717651370,-0.08171588182449340,0.04198504239320760
2022-11-10T02:47:49.277-07:00,-0.09368333965539930,0.1223733425140380,0.260009765625,-0.01372992992401120,-0.08551722764968870,0.03234422206878660
2022-11-10T02:47:49.287-07:00,-0.04855367913842200,0.1718255877494810,0.1511682271957400,-0.04290628433227540,-0.09459081292152410,0.0268099308013916
2022-11-10T02:47:49.297-07:00,-0.04082877933979030,0.1734135001897810,0.0773126482963562,-0.04458117485046390,-0.1166612803936010,0.01930653303861620
2022-11-10T02:47:49.307-07:00,-0.03335941582918170,0.1426521241664890,0.03866858780384060,-0.02451789379119870,-0.1273125410079960,0.006081707775592800
2022-11-10T02:47:49.317-07:00,-0.01248336024582390,0.07933992892503740,-0.01056500524282460,-0.007595062255859380,-0.125371128320694,-0.0008929967880249020
2022-11-10T02:47:49.327-07:00,0.01180786639451980,0.01985529623925690,-0.07150984555482860,0.001273274421691900,-0.124492734670639,-0.01194608211517330
2022-11-10T02:47:49.337-07:00,0.03040558286011220,-0.01307662017643450,-0.1123986914753910,0.001099526882171630,-0.1161854267120360,-0.01585548371076580
2022-11-10T02:47:49.347-07:00,0.04643408209085460,-0.04247552156448360,-0.1351122707128530,-0.001076459884643560,-0.1139034628868100,-0.01090753078460690
2022-11-10T02:47:49.357-07:00,0.05152957886457440,-0.08414819836616520,-0.1476482897996900,-0.0007159709930419920,-0.1123709976673130,-0.006881117820739750
2022-11-10T02:47:49.367-07:00,0.05516026169061660,-0.1507895439863210,-0.1529722213745120,0.00979238748550415,-0.10024493932724,-0.0008722543716430660
2022-11-10T02:47:49.377-07:00,0.0414312370121479,-0.1887756437063220,-0.1413808017969130,0.02110213041305540,-0.07167571783065800,-0.003755509853363040
2022-11-10T02:47:49.387-07:00,0.0860423818230629,-0.2153526544570920,-0.08328767865896230,0.03826224803924560,-0.03124549984931950,-0.007092900574207310
2022-11-10T02:47:49.397-07:00,0.07779250293970110,-0.1804972738027570,-0.02750696986913680,0.03194576501846310,-0.03850233554840090,-0.01517307013273240
2022-11-10T02:47:49.407-07:00,0.04384332895278930,-0.145228236913681,0.02144858799874780,0.007943630218505860,-0.0290379524230957,-0.02552164345979690
2022-11-10T02:47:49.417-07:00,0.00137789361178875,-0.1026959493756290,0.04307745397090910,-0.0136115550994873,0.03932160139083860,-0.03553307056427000
2022-11-10T02:47:49.427-07:00,-0.03058350086212160,-0.05496092140674590,0.04541357606649400,-0.01851356029510500,0.1510151028633120,-0.04213261604309080
2022-11-10T02:47:49.437-07:00,-0.02994124591350560,0.00271632382646203,0.04473580047488210,-0.02071046829223630,0.1944179832935330,-0.0418403148651123
2022-11-10T02:47:49.447-07:00,-0.001171117648482320,0.02013020217418670,0.05252235010266300,-0.02383160591125490,0.1603836715221410,-0.03568917512893680
2022-11-10T02:47:49.457-07:00,0.01661989651620390,0.02800353802740570,0.0450119711458683,-0.01588571071624760,0.1293330192565920,-0.02776241302490230
2022-11-10T02:47:49.467-07:00,0.03684154152870180,0.02883790619671350,0.03910348191857340,-0.001797258853912350,0.1195074617862700,-0.0151209756731987
2022-11-10T02:47:49.477-07:00,0.06651318818330770,0.002124502789229160,0.05291702970862390,0.00732421875,0.09099319577217100,-0.00606691837310791
2022-11-10T02:47:49.488-07:00,0.07683879882097240,-0.01239212229847910,0.06712392717599870,0.00837099552154541,0.04899480938911440,-0.003103539347648620
2022-11-10T02:47:49.498-07:00,0.03664856404066090,-0.01608146540820600,0.07849083840847020,0.003707170486450200,0.03180930018424990,-0.01150357723236080
2022-11-10T02:47:49.508-07:00,0.006894133985042570,-0.01913637854158880,0.07277914881706240,0.001195371150970460,0.03068482875823980,-0.01963937282562260
2022-11-10T02:47:49.518-07:00,-0.009908316656947140,-0.02069642394781110,0.06086843460798260,0.004981875419616700,0.0136910080909729,-0.01913344860076900
2022-11-10T02:47:49.528-07:00,-0.02552509307861330,-0.02012224681675430,0.0430297814309597,0.01025533676147460,-0.00694313645362854,-0.01731455326080320
2022-11-10T02:47:49.538-07:00,-0.02295783907175060,-0.009854395873844620,0.02250959165394310,0.01153898239135740,-0.02053910493850710,-0.01144319027662280
2022-11-10T02:47:49.548-07:00,-0.01431401632726190,0.008644985966384410,0.01061271876096730,0.009031474590301510,-0.03346976637840270,-0.007998473942279820
2022-11-10T02:47:49.558-07:00,-0.003658043220639230,0.01608013361692430,-0.006957753095775840,0.007644236087799070,-0.0476871132850647,-0.005809061229228970
2022-11-10T02:47:49.568-07:00,0.007627101615071300,0.01159030944108960,-0.02586246840655800,0.009853661060333250,-0.05966484546661380,-0.001814424991607670
2022-11-10T02:47:49.578-07:00,0.01104024238884450,0.002104895422235130,-0.04979869350790980,0.01282870769500730,-0.05690115690231320,-0.003259956836700440
2022-11-10T02:47:49.588-07:00,0.008243922144174580,0.005299090407788750,-0.0723322331905365,0.01530319452285770,-0.04740682244300840,-0.003762245178222660
2022-11-10T02:47:49.598-07:00,-0.0079317856580019,0.01460544019937520,-0.0869671031832695,0.0138094425201416,-0.03400489687919620,-0.01052308082580570
2022-11-10T02:47:49.608-07:00,-0.01777829043567180,0.005197291262447830,-0.09228676557540890,0.009487390518188480,-0.02465736865997310,-0.0126575231552124
2022-11-10T02:47:49.618-07:00,-0.02446355670690540,-0.00853083748370409,-0.09531611204147340,0.01163363456726070,-0.0181877613067627,-0.009436018764972690
2022-11-10T02:47:49.628-07:00,-0.02122941426932810,-0.01704709418118,-0.08310364931821820,0.01213943958282470,-0.01147192716598510,-0.009992718696594240
2022-11-10T02:47:49.638-07:00,-0.005286334082484250,-0.02105575241148470,-0.06901313364505770,0.004487812519073490,0.005922496318817140,-0.01027607172727590
2022-11-10T02:47:49.648-07:00,0.01764268614351750,-0.01363991294056180,-0.06065986305475240,0.0004941225051879880,0.02937042713165280,-0.006577432155609130
2022-11-10T02:47:49.658-07:00,0.04175440967082980,-0.01827248185873030,-0.05089112371206280,-0.001045644283294680,0.04658553004264830,-0.001494340598583220
2022-11-10T02:47:49.668-07:00,0.06976607441902160,-0.02432052046060560,-0.03255818784236910,-0.001240551471710210,0.0507659912109375,-0.002001099288463590
2022-11-10T02:47:49.678-07:00,0.09958745539188390,-0.01442165113985540,-0.01530702970921990,-0.003273367881774900,0.04932808876037600,-0.002565383911132810
2022-11-10T02:47:49.688-07:00,0.1123320087790490,-0.01202880032360550,0.006067235022783280,-0.007011532783508300,0.03708815574646000,-0.006439670920372010
2022-11-10T02:47:49.698-07:00,0.1210443452000620,-0.01134416833519940,0.01631774194538590,-0.00399625301361084,0.02712467312812810,-0.008695483207702640
2022-11-10T02:47:49.708-07:00,0.09366144984960560,-0.006059391424059870,0.02973954007029530,0.001132607460021970,0.02082788944244390,-0.01108097285032270
2022-11-10T02:47:49.718-07:00,0.07837071269750600,-0.001550992368720470,0.03217899799346920,8.75592231750488E-05,0.01210257411003110,-0.01381861418485640
2022-11-10T02:47:49.728-07:00,0.06785228848457340,-0.005310576874762770,0.02968041971325870,0.001968502998352050,-0.001043319702148440,-0.01472163200378420
2022-11-10T02:47:49.738-07:00,0.04334731772542,-0.008440690115094190,0.02387499436736110,0.005916118621826170,-0.009875833988189700,-0.0122840404510498
2022-11-10T02:47:49.748-07:00,0.01945023611187940,-0.006950384937226770,0.01918783038854600,0.008593261241912840,-0.01734447479248050,-0.01375513523817060
2022-11-10T02:47:49.759-07:00,0.006978221237659450,0.002959936391562220,0.01590468548238280,0.006830692291259770,-0.02304697036743160,-0.01582956314086910
2022-11-10T02:47:49.769-07:00,-0.01197256613522770,0.007696368731558320,0.008460085839033130,0.003426790237426760,-0.02455973625183110,-0.01793181151151660
2022-11-10T02:47:49.779-07:00,-0.02637414261698720,0.005169561132788660,-0.001363783143460750,0.005889654159545900,-0.02052173018455510,-0.01747137308120730
2022-11-10T02:47:49.789-07:00,-0.03412021324038510,0.009140866808593270,-0.006118590943515300,0.009295403957366940,-0.01224201917648320,-0.01285160332918170
2022-11-10T02:47:49.799-07:00,-0.02421458438038830,0.008899584412574770,-0.01349075324833390,0.007339298725128170,-0.007775217294692990,-0.01094866544008260
2022-11-10T02:47:49.809-07:00,-0.01900224573910240,0.007390105165541170,-0.01797471754252910,0.007962405681610110,-0.005748212337493900,-0.01110195368528370
2022-11-10T02:47:49.819-07:00,-0.02054531499743460,0.007053781300783160,-0.01434669364243750,0.007719635963439940,0.002659738063812260,-0.008998274803161620
2022-11-10T02:47:49.829-07:00,-0.0174587108194828,0.007842876017093660,-0.002329179085791110,0.005610227584838870,0.01170951128005980,-0.008563049137592320
2022-11-10T02:47:49.839-07:00,-0.019858218729496,0.00791344977915287,0.007008130196481940,0.001940369606018070,0.01346224546432500,-0.009089350700378420
2022-11-10T02:47:49.849-07:00,-0.01759746111929420,0.006306231953203680,0.02088506333529950,0.001824498176574710,0.01406079530715940,-0.009987711906433110
2022-11-10T02:47:49.859-07:00,-0.01121299993246790,0.005502688698470590,0.03766883909702300,0.0001015067100524900,0.01595988869667050,-0.008918873965740200
2022-11-10T02:47:49.869-07:00,-0.008048364892601970,0.004250736907124520,0.05358255654573440,-0.001549899578094480,0.01601660251617430,-0.006369836628437040
2022-11-10T02:47:49.879-07:00,0.01010836847126480,0.002618918661028150,0.06297818571329120,-0.001621484756469730,0.0107463002204895,-0.00539010763168335
2022-11-10T02:47:49.889-07:00,0.01137256994843480,-0.000275404890999198,0.06997111439704900,0.0007666349411010740,0.005186855792999270,-0.003765583038330080
2022-11-10T02:47:49.899-07:00,0.008694030344486240,-0.002388689666986470,0.06951971352100370,0.002739310264587400,0.0008135139942169190,-0.005901098251342770
2022-11-10T02:47:49.909-07:00,0.009187780320644380,-0.001220094505697490,0.0701274499297142,0.00321805477142334,-0.002396166324615480,-0.00912071019411087
2022-11-10T02:47:49.919-07:00,0.006059197708964350,0.000300736865028739,0.0642586350440979,0.004634857177734380,-0.004018008708953860,-0.009337902069091800
2022-11-10T02:47:49.929-07:00,-0.00409943051636219,0.003608915256336330,0.05849875509738920,0.005630373954772950,-0.003574401140213010,-0.009600289165973660
2022-11-10T02:47:49.939-07:00,-0.01196367852389810,0.001574193825945260,0.05445340648293500,0.005750298500061040,-0.004802078008651730,-0.01121962815523150
2022-11-10T02:47:49.949-07:00,-0.02718151360750200,-0.000937966164201498,0.05554050952196120,0.006398856639862060,-0.006130397319793700,-0.01112376898527150
2022-11-10T02:47:49.959-07:00,-0.03793186321854590,0.00164659833535552,0.05696024000644680,0.004317164421081540,-0.006065934896469120,-0.0121910497546196
2022-11-10T02:47:49.969-07:00,-0.0452912412583828,0.009439540095627310,0.05580230057239530,0.004242300987243650,-0.005896925926208500,-0.01156288385391240
2022-11-10T02:47:49.979-07:00,-0.04951075464487080,0.008495450019836430,0.04753797873854640,0.005548954010009770,-0.005344927310943600,-0.01319830864667890
2022-11-10T02:47:49.989-07:00,-0.04856906086206440,0.009072557091712950,0.03469328582286840,0.008278846740722660,0.002745091915130620,-0.0111701563000679
2022-11-10T02:47:49.999-07:00,-0.04081200435757640,0.008436260744929310,0.01746982522308830,0.01219916343688970,0.009120315313339230,-0.006895720958709720
2022-11-10T02:47:50.009-07:00,-0.03354663401842120,0.01170875318348410,0.009335467591881750,0.00982058048248291,0.009701520204544070,-0.005535729229450230
2022-11-10T02:47:50.019-07:00,-0.02104402519762520,0.01153817772865300,0.008245168253779410,0.009267151355743410,0.008520036935806270,-0.005535714328289030
2022-11-10T02:47:50.029-07:00,-0.01434590853750710,0.01099489256739620,0.004797706380486490,0.00601571798324585,0.004099369049072270,-0.003342509269714360
2022-11-10T02:47:50.040-07:00,-0.0107867605984211,0.00879741832613945,-0.0007914700545370580,0.005189716815948490,0.0006980597972869870,-0.00407177209854126
2022-11-10T02:47:50.049-07:00,-0.001595392823219300,0.003764577442780140,-0.007708764635026460,0.00671231746673584,0.001942276954650880,-0.004608146846294400
2022-11-10T02:47:50.060-07:00,0.002846060320734980,-0.0006694195326417690,-0.01490382663905620,0.007675409317016600,0.0004913806915283200,-0.005772948265075680
2022-11-10T02:47:50.070-07:00,0.007840819656848910,-0.005397329106926920,-0.02281687781214710,0.009034156799316410,0.0002380311489105230,-0.005468845367431640
2022-11-10T02:47:50.080-07:00,0.02045821025967600,-0.005818242207169530,-0.03010781481862070,0.008521437644958500,0.0009974837303161620,-0.005345337092876430
2022-11-10T02:47:50.090-07:00,0.02520769089460370,-0.007418535184115170,-0.035711370408535,0.008270502090454100,0.0005380213260650640,-0.00518798828125
2022-11-10T02:47:50.100-07:00,0.03386203199625020,-0.006164053454995160,-0.03805442154407500,0.007672786712646480,0.003797024488449100,-0.007909059524536130
2022-11-10T02:47:50.110-07:00,0.04515304043889050,-0.006809603422880170,-0.04370857775211330,0.006939291954040530,0.005315124988555910,-0.004868626594543460
2022-11-10T02:47:50.120-07:00,0.04428877681493760,-0.00599674042314291,-0.04321615770459180,0.004525184631347660,0.003837049007415770,-0.005133695900440220
2022-11-10T02:47:50.130-07:00,0.03998483717441560,-0.006154665723443030,-0.03871621564030650,0.004358172416687010,0.005287528038024900,-0.005161412060260770
2022-11-10T02:47:50.140-07:00,0.02642608992755410,-0.0007955201435834170,-0.03291425108909610,0.00483405590057373,0.002779990434646610,-0.00704849511384964
2022-11-10T02:47:50.150-07:00,0.01713378913700580,0.00479019433259964,-0.02347680926322940,0.001707553863525390,0.0003939568996429440,-0.009769141674041750
2022-11-10T02:47:50.160-07:00,0.009979037567973140,0.003265966894105080,-0.0223244596272707,0.0008637309074401860,2.90870666503906E-05,-0.0102604553103447
2022-11-10T02:47:50.170-07:00,0.007462084293365480,0.003685148200020190,-0.02706701681017880,0.002519428730010990,-0.001750528812408450,-0.007935397326946260
2022-11-10T02:47:50.180-07:00,0.009290246292948720,-0.000756637891754508,-0.03147507831454280,0.005043089389801030,-0.004485487937927250,-0.008487097918987270
2022-11-10T02:47:50.190-07:00,0.02035647816956040,0.003431715536862610,-0.02982179075479510,0.007208704948425290,0.0003031492233276370,-0.005111455917358400
2022-11-10T02:47:50.200-07:00,0.01789708063006400,0.005083374679088590,-0.02256361022591590,0.005166053771972660,0.00132298469543457,-0.004755012691020970
2022-11-10T02:47:50.210-07:00,0.01796126365661620,0.001987183699384330,-0.007915159687399860,0.0005208253860473630,0.002150386571884160,-0.0056418776512146
2022-11-10T02:47:50.220-07:00,0.007023530080914500,0.003938880749046800,0.004971077665686610,-0.002082645893096920,0.003668159246444700,-0.007127642631530760
2022-11-10T02:47:50.230-07:00,-0.01010565645992760,0.01278190687298780,0.01756303571164610,-0.002813220024108890,0.005735874176025390,-0.01005994528532030
2022-11-10T02:47:50.240-07:00,-0.02898424118757250,0.03390287235379220,0.02741460129618650,-0.001845300197601320,0.002320021390914920,-0.01179182529449460
2022-11-10T02:47:50.250-07:00,-0.03293690457940100,0.002674378920346500,0.06555613130331040,-0.002109766006469730,-0.004442304372787480,-0.01536792516708370
2022-11-10T02:47:50.261-07:00,0.01364587619900700,-0.05702420324087140,0.1058739945292470,-0.0022735595703125,-0.004522591829299930,-0.00315248966217041
2022-11-10T02:47:50.271-07:00,0.03919411450624470,-0.09002184122800830,0.1120485290884970,-0.0003021955490112310,-0.005867034196853640,0.01401913911104200
2022-11-10T02:47:50.281-07:00,0.09276206791400910,-0.08552089333534240,0.1024419739842420,0.008293390274047850,0.001650452613830570,0.006942637264728550
2022-11-10T02:47:50.290-07:00,0.1514104753732680,-0.07191826403141020,0.1088527366518970,0.005610764026641850,0.02427667379379270,0.001989729702472690
2022-11-10T02:47:50.301-07:00,0.2859925329685210,-0.05754252523183820,0.1281358897686010,-0.002190232276916500,0.05859199166297910,0.01963794231414800
2022-11-10T02:47:50.311-07:00,0.4646094143390660,-0.1000100895762440,0.1401816308498380,-0.003727912902832030,0.03686052560806270,0.04605817794799810
2022-11-10T02:47:50.321-07:00,0.651307225227356,-0.122511237859726,0.1475524604320530,0.01089286804199220,0.01050996780395510,0.07238233089447020
2022-11-10T02:47:50.331-07:00,0.8539860248565670,-0.140984520316124,0.1476033180952070,0.01977008581161500,-0.01127165555953980,0.073470838367939
2022-11-10T02:47:50.341-07:00,0.9729378223419190,-0.1089949905872350,0.1803804486989980,0.01721036434173580,0.01005223393440250,0.06265580654144290
2022-11-10T02:47:50.351-07:00,1.011436462402340,0.03666473552584650,0.2852048575878140,-0.008395195007324220,0.1355169117450710,0.04379153251647950
2022-11-10T02:47:50.361-07:00,0.8990461826324460,0.4333565533161160,0.424157440662384,-0.06672751903533940,0.2788138389587400,0.02585255354642870
2022-11-10T02:47:50.371-07:00,0.2535395920276640,1.103538155555730,0.6765329837799070,-0.1563432812690740,0.3745574057102200,0.02801967412233350
