loggingTime(txt),motionRotationRateX(rad/s),motionRotationRateY(rad/s),motionRotationRateZ(rad/s),motionUserAccelerationX(G),motionUserAccelerationY(G),motionUserAccelerationZ(G)
2022-11-11T23:59:17.816-07:00,0.06530387699604030,0.0143571775406599,0.01607718504965310,-0.00041913241147995,-0.03434154391288760,-0.009100377559661870
2022-11-11T23:59:17.819-07:00,0.08082827925682070,0.00690455362200737,0.01424998976290230,0.006507964804768560,-0.02049735188484190,-0.01823008060455320
2022-11-11T23:59:17.820-07:00,0.1294480115175250,0.0108753265812993,0.03748154267668720,0.005626289173960690,0.002491235733032230,-0.0105520486831665
2022-11-11T23:59:17.821-07:00,0.1766552180051800,0.0282101072371006,0.04467367753386500,-0.00186077319085598,0.02687746286392210,-0.01187020540237430
2022-11-11T23:59:17.822-07:00,0.190021887421608,0.04142072051763540,0.04271705076098440,-0.004142580553889280,0.03796496987342830,-0.001256227493286130
2022-11-11T23:59:17.823-07:00,0.1659430414438250,0.05840969085693360,0.02560278028249740,-0.02285166084766390,0.02527841925621030,0.0005193352699279790
2022-11-11T23:59:17.833-07:00,0.1364192366600040,0.066140316426754,0.008507415652275090,-0.02263281121850010,-0.008186608552932740,-0.002178966999053960
2022-11-11T23:59:17.847-07:00,0.09752822667360310,0.06680750101804730,-0.01190518122166400,-0.02267591282725330,-0.02958330512046810,-0.001846075057983400
2022-11-11T23:59:17.865-07:00,0.06864811480045320,0.05693143606185910,-0.0240356121212244,-0.01245315931737420,-0.02840128540992740,0.002274036407470700
2022-11-11T23:59:17.866-07:00,0.0567939467728138,0.04622036963701250,-0.02214343659579750,-0.0004711933434009550,-0.01617327332496640,0.01821732521057130
2022-11-11T23:59:17.873-07:00,0.05194646492600440,0.02756812050938610,-0.02149815298616890,0.00802079401910305,-0.01213270425796510,0.03337287902832030
2022-11-11T23:59:17.883-07:00,0.03314624726772310,0.01546208932995800,-0.01755108311772350,0.00989341177046299,-0.003776192665100100,0.02321970462799070
2022-11-11T23:59:17.893-07:00,0.01323645375669000,0.006128774955868720,-0.00981646403670311,0.01806936413049700,-0.00272861123085022,0.006671905517578130
2022-11-11T23:59:17.903-07:00,-0.004326330497860910,-0.002141372067853810,0.001009818632155660,0.01770750246942040,-0.01991730928421020,-0.002946853637695310
2022-11-11T23:59:17.913-07:00,-0.0277086179703474,-0.009588103741407390,0.00445861229673028,0.01494329050183300,-0.02291449904441830,0.001538693904876710
2022-11-11T23:59:17.923-07:00,-0.0609961673617363,-0.02239481173455720,-0.001414456870406870,0.009109821170568470,-0.01261979341506960,0.01442217826843260
2022-11-11T23:59:17.933-07:00,-0.0814090296626091,-0.02766973525285720,-0.004631555639207360,0.006397614255547520,-0.008075922727584840,0.01969510316848760
2022-11-11T23:59:17.943-07:00,-0.1024717390537260,-0.03257950395345690,-0.004138870164752010,0.005176760256290440,-0.01486280560493470,0.01509612798690800
2022-11-11T23:59:17.953-07:00,-0.1071178913116460,-0.04171387851238250,3.27047891914845E-05,0.003379736328497530,-0.01308658719062810,0.002329647541046140
2022-11-11T23:59:17.963-07:00,-0.09731206297874450,-0.04284925386309620,0.005608831532299520,0.005378078669309620,-0.01124846935272220,-0.009811520576477050
2022-11-11T23:59:17.973-07:00,-0.08177225291728970,-0.04004734009504320,0.008096756413578990,0.003846006467938420,-0.008745491504669190,-0.01411664485931400
2022-11-11T23:59:17.984-07:00,-0.06431207060813900,-0.0316825844347477,0.006935085169970990,-0.001457726582884790,0.005590498447418210,-0.005833089351654050
2022-11-11T23:59:17.994-07:00,-0.06095888465642930,-0.01680590212345120,0.01243983954191210,-0.003017526119947430,0.01468926668167110,0.002857208251953130
2022-11-11T23:59:18.004-07:00,-0.05402897298336030,-0.01239713840186600,0.004359808750450610,-0.007599035277962690,0.007472425699234010,0.00615847110748291
2022-11-11T23:59:18.014-07:00,-0.04076829552650450,-0.007625819649547340,0.00571083091199398,-0.004707809537649160,0.0006411075592041020,-0.001689314842224120
2022-11-11T23:59:18.024-07:00,-0.01155637949705120,-0.001327410340309140,0.006240533199161290,-0.003341445699334150,0.001251786947250370,-0.005734562873840330
2022-11-11T23:59:18.034-07:00,0.02477020211517810,0.003046299098059540,0.0107846837490797,-0.002336224541068080,0.009746372699737550,-0.008153915405273440
2022-11-11T23:59:18.044-07:00,0.05640719085931780,0.006592331454157830,0.01060332357883450,-0.00579218752682209,0.02168577909469600,-0.01002031564712520
2022-11-11T23:59:18.054-07:00,0.06148344278335570,0.01056496892124410,0.01387341879308220,-0.004997173324227330,0.02096590399742130,-0.003747820854187010
2022-11-11T23:59:18.064-07:00,0.04820505529642110,0.01949627883732320,0.009623014368116860,-0.004112165421247480,0.01263239979743960,0.001814663410186770
2022-11-11T23:59:18.074-07:00,0.03517873585224150,0.02290059812366960,0.00585464108735323,-0.00604618526995182,-0.01153993606567380,0.003648340702056890
2022-11-11T23:59:18.084-07:00,0.02496108412742620,0.02687206864357000,0.008009671233594420,-0.008175818249583240,-0.01507773995399480,0.003315448760986330
2022-11-11T23:59:18.094-07:00,0.02568652853369710,0.03103965148329740,0.006053579039871690,-0.003770701587200170,0.0003514587879180910,0.001037478446960450
2022-11-11T23:59:18.104-07:00,0.02130842581391340,0.02408280782401560,0.002398124895989900,-0.002767117461189630,-0.0006239712238311770,-0.001389801502227780
2022-11-11T23:59:18.114-07:00,0.01782101765275000,0.01943452656269070,-0.00115373358130455,0.0003622714430093770,-0.00186622142791748,0.0003072023391723630
2022-11-11T23:59:18.124-07:00,0.02108382247388360,0.0139112314209342,-0.006294433493167160,0.000948980450630188,-0.003090590238571170,0.002461552619934080
2022-11-11T23:59:18.135-07:00,0.02712333761155610,0.004475651308894160,-0.002227786462754010,0.003221161663532260,0.0001056790351867680,-0.0003369450569152830
2022-11-11T23:59:18.144-07:00,0.02809475921094420,0.003422736888751390,0.0004058140330016610,0.00303705595433712,0.007677018642425540,-0.00578993558883667
2022-11-11T23:59:18.154-07:00,0.03389858454465870,-0.003014389658346770,0.001624210271984340,0.005607316270470620,0.005100339651107790,-0.01390796899795530
2022-11-11T23:59:18.164-07:00,0.03340886533260350,-0.0008825624827295540,-0.003335128771141170,0.003103077411651610,-0.001063674688339230,-0.005279302597045900
2022-11-11T23:59:18.174-07:00,0.02735869400203230,0.006019285414367910,-0.003193981479853390,-0.004144944250583650,-0.00163307785987854,0.0085715651512146
2022-11-11T23:59:18.184-07:00,0.01934431120753290,0.003758128965273500,-0.007248643785715100,-0.004071744158864020,0.001917064189910890,0.01645481586456300
2022-11-11T23:59:18.194-07:00,0.0233241394162178,0.006050843745470050,-0.01015069056302310,-0.00031139119528234,-0.004235744476318360,0.006031692028045650
2022-11-11T23:59:18.204-07:00,0.03438777476549150,0.007454529404640200,-0.009499548003077510,0.0002812854945659640,0.002020120620727540,-0.005538225173950200
2022-11-11T23:59:18.215-07:00,0.05337851494550710,0.004333837889134880,-0.01345380954444410,0.004026101902127270,0.007162630558013920,-0.00896918773651123
2022-11-11T23:59:18.225-07:00,0.08176417648792270,-0.002138276118785140,-0.01784376427531240,-0.001098489388823510,0.005586683750152590,-0.02101868391036990
2022-11-11T23:59:18.235-07:00,0.1102216467261310,-0.01300317421555520,-0.02607799135148530,-0.002310173586010930,0.01092061400413510,-0.03631776571273800
2022-11-11T23:59:18.245-07:00,0.1322545856237410,-0.0167231447994709,-0.02139935083687310,-0.0004571620374917980,0.01506498456001280,-0.03914886713027950
2022-11-11T23:59:18.255-07:00,0.1131599843502050,-0.01733673736453060,-0.01612389460206030,0.003118628636002540,0.009528398513793950,-0.03171688318252560
2022-11-11T23:59:18.265-07:00,0.06805619597435000,-0.005642297212034460,-0.03099658340215680,-0.005023160949349400,-0.01085260510444640,-0.02926760911941530
2022-11-11T23:59:18.275-07:00,-0.01879694871604440,-0.04444961622357370,-0.1554149389266970,-0.00683358870446682,-0.04403403401374820,-0.0445246696472168
2022-11-11T23:59:18.285-07:00,-0.05274999141693120,0.01305429078638550,-0.08359800279140470,-0.008991219103336330,-0.0530301034450531,-0.0528637170791626
2022-11-11T23:59:18.295-07:00,-0.1476365625858310,-0.02504036389291290,-0.2170854955911640,-0.05551402270793920,-0.03739303350448610,-0.06061166524887090
2022-11-11T23:59:18.305-07:00,-0.2005803287029270,0.01328425668179990,-0.2230328768491750,-0.02577851340174680,-0.06732496619224550,-0.04726046323776250
2022-11-11T23:59:18.315-07:00,-0.2593589425086980,-0.001897892565466460,-0.2723399698734280,-0.07408688962459560,-0.05097475647926330,-0.04421794414520260
2022-11-11T23:59:18.325-07:00,-0.2936637699604030,-0.009073946624994280,-0.3190693855285650,-0.0628882497549057,-0.04414942860603330,-0.04285448789596560
2022-11-11T23:59:18.335-07:00,-0.2910219132900240,-0.0274854451417923,-0.3615454733371740,-0.0851045548915863,-0.05560079216957090,-0.08031290769577030
2022-11-11T23:59:18.351-07:00,-0.2207043021917340,-0.04121167585253720,-0.3808842897415160,-0.1047815531492230,-0.05602288246154790,-0.130025327205658
2022-11-11T23:59:18.382-07:00,-0.1689779907464980,-0.02272427827119830,-0.4052519202232360,-0.113853894174099,-0.02609339356422420,-0.1484461426734920
2022-11-11T23:59:18.383-07:00,-0.1752312034368520,0.0003028437495231630,-0.4806753396987920,-0.1150060892105100,-0.01318556070327760,-0.1318375468254090
2022-11-11T23:59:18.383-07:00,-0.170114204287529,0.04262074083089830,-0.5718877911567690,-0.1081249564886090,-0.06762319803237920,-0.08654069900512700
2022-11-11T23:59:18.385-07:00,-0.1536717712879180,0.08245543390512470,-0.6091523766517640,-0.106493316590786,-0.09055882692337040,-0.05428987741470340
2022-11-11T23:59:18.395-07:00,-0.1201732009649280,0.1177401915192600,-0.643677294254303,-0.1081994920969010,-0.05262860655784610,-0.03954058885574340
2022-11-11T23:59:18.405-07:00,-0.1024174764752390,0.1332268267869950,-0.6454554796218870,-0.1046706065535550,-0.01228868961334230,-0.03822845220565800
2022-11-11T23:59:18.415-07:00,-0.1414162814617160,0.1298022717237470,-0.6425473093986510,-0.09738461673259740,0.01858499646186830,-0.02701520919799810
2022-11-11T23:59:18.425-07:00,-0.1998402029275890,0.1210290566086770,-0.6399642825126650,-0.08378763496875760,0.02783560752868650,-0.01231551170349120
2022-11-11T23:59:18.435-07:00,-0.2247655242681500,0.1126643344759940,-0.6263635158538820,-0.07868534326553350,0.0282139778137207,-0.009745001792907720
2022-11-11T23:59:18.445-07:00,-0.2086934745311740,0.1004067361354830,-0.6041243076324460,-0.07697131484746930,0.03326511383056640,-0.01052510738372800
2022-11-11T23:59:18.455-07:00,-0.1710185408592220,0.07918000966310500,-0.5798189640045170,-0.07361838221549990,0.05935391783714290,-0.007939815521240230
2022-11-11T23:59:18.465-07:00,-0.1044459119439130,0.05708776414394380,-0.5446106195449830,-0.06610842049121860,0.08145639300346380,-0.01695060729980470
2022-11-11T23:59:18.475-07:00,-0.03006861172616480,0.0330042652785778,-0.5220150351524350,-0.06655365973711010,0.08853304386138920,-0.03868436813354490
2022-11-11T23:59:18.485-07:00,0.01468301378190520,0.00487316120415926,-0.5145038366317750,-0.06667046248912810,0.0775856077671051,-0.04427987337112430
2022-11-11T23:59:18.495-07:00,0.01570060662925240,-0.01238412223756310,-0.5081748366355900,-0.06067470461130140,0.06667414307594300,-0.02946072816848760
2022-11-11T23:59:18.505-07:00,-0.004678798839449880,-0.03482168912887570,-0.5207942128181460,-0.05432110652327540,0.05479753017425540,-0.006165921688079830
2022-11-11T23:59:18.515-07:00,-0.03839601576328280,-0.06114383786916730,-0.5410105586051940,-0.05925963073968890,0.03403764963150020,0.00948333740234375
2022-11-11T23:59:18.525-07:00,-0.06303125619888310,-0.1005024984478950,-0.5742894411087040,-0.06315550208091740,0.02537298202514650,0.01288318634033200
2022-11-11T23:59:18.535-07:00,-0.09278754889965060,-0.1356042921543120,-0.611470639705658,-0.0719916895031929,0.008915603160858150,0.003419160842895510
2022-11-11T23:59:18.545-07:00,-0.09021434187889100,-0.1621142625808720,-0.6470893621444700,-0.08567771315574650,-0.01042953133583070,-0.02470964193344120
2022-11-11T23:59:18.555-07:00,-0.04360582679510120,-0.1813777089118960,-0.6965525150299070,-0.09699610620737080,-0.02132159471511840,-0.03710359334945680
2022-11-11T23:59:18.565-07:00,0.007956037297844890,-0.1983096748590470,-0.7350943088531490,-0.09221069514751430,-0.02025723457336430,-0.05089128017425540
2022-11-11T23:59:18.575-07:00,0.04269484430551530,-0.2137714624404910,-0.7733838558197020,-0.09061038494110110,-0.006701678037643430,-0.05372631549835210
2022-11-11T23:59:18.585-07:00,0.1180187538266180,-0.2321447432041170,-0.8057519197463990,-0.09023161977529530,0.0001146197319030760,-0.05890041589736940
2022-11-11T23:59:18.595-07:00,0.2199989259243010,-0.2611665427684780,-0.8533620834350590,-0.09359951317310330,-0.004582226276397710,-0.07956516742706300
2022-11-11T23:59:18.605-07:00,0.2880153357982640,-0.3083823621273040,-0.9176851511001590,-0.09248445183038710,-0.01442885398864750,-0.1065967082977300
2022-11-11T23:59:18.616-07:00,0.3072668015956880,-0.3575669527053830,-0.9824521541595460,-0.09920060634613040,-0.02221634984016420,-0.1150181293487550
2022-11-11T23:59:18.626-07:00,0.3038357496261600,-0.3972996175289150,-1.067065358161930,-0.1038800030946730,-0.02620059251785280,-0.108128547668457
2022-11-11T23:59:18.636-07:00,0.2644007503986360,-0.438619077205658,-1.172801613807680,-0.1048509702086450,-0.03672671318054200,-0.09253132343292240
2022-11-11T23:59:18.646-07:00,0.185574471950531,-0.4725827574729920,-1.274815797805790,-0.1080239862203600,-0.04461875557899480,-0.09005343914031980
2022-11-11T23:59:18.656-07:00,0.07945655286312100,-0.4998756349086760,-1.366005182266240,-0.108338326215744,-0.05101287364959720,-0.08807975053787230
2022-11-11T23:59:18.666-07:00,-0.01604227535426620,-0.5053564310073850,-1.440919876098630,-0.1136819496750830,-0.05988302826881410,-0.0864289402961731
2022-11-11T23:59:18.676-07:00,-0.03580106794834140,-0.47755166888237,-1.516569852828980,-0.1243193000555040,-0.07830476760864260,-0.07870882749557500
2022-11-11T23:59:18.686-07:00,0.02677216753363610,-0.4399977624416350,-1.583906054496770,-0.1384453624486920,-0.08989351987838750,-0.08859896659851070
2022-11-11T23:59:18.696-07:00,0.08752259612083440,-0.4075396955013280,-1.629224538803100,-0.152170717716217,-0.07297393679618840,-0.09671944379806520
2022-11-11T23:59:18.706-07:00,0.1195351928472520,-0.3668703436851500,-1.677680492401120,-0.1531324982643130,-0.0391441285610199,-0.09226125478744510
2022-11-11T23:59:18.716-07:00,0.1371746361255650,-0.313563734292984,-1.735272645950320,-0.1553691327571870,-0.0205722451210022,-0.0788799524307251
2022-11-11T23:59:18.726-07:00,0.130460649728775,-0.2767951786518100,-1.787310838699340,-0.1649678945541380,-0.03481742739677430,-0.05842381715774540
2022-11-11T23:59:18.736-07:00,0.1119940206408500,-0.2767514884471890,-1.860644698143010,-0.165563553571701,-0.0487220287322998,-0.05219054222106930
2022-11-11T23:59:18.746-07:00,0.08319965749979020,-0.282675176858902,-1.940661311149600,-0.1600958704948430,-0.0420907735824585,-0.05046176910400390
2022-11-11T23:59:18.756-07:00,0.04185567796230320,-0.2869817614555360,-1.997217774391170,-0.1582562923431400,-0.01966604590415960,-0.04513615369796750
2022-11-11T23:59:18.766-07:00,0.001567013561725620,-0.305086612701416,-2.030683994293210,-0.1548162698745730,-0.003643333911895750,-0.03217047452926640
2022-11-11T23:59:18.776-07:00,-0.03360509127378460,-0.3324772417545320,-2.066338539123540,-0.1441800594329830,-0.002057790756225590,-0.02141982316970830
2022-11-11T23:59:18.786-07:00,-0.06230557709932330,-0.3514103293418880,-2.097527027130130,-0.131352037191391,-0.008475422859191900,-0.003199219703674320
2022-11-11T23:59:18.796-07:00,-0.04937859252095220,-0.3653479814529420,-2.119602203369140,-0.1185260713100430,-0.003543257713317870,0.01026284694671630
2022-11-11T23:59:18.806-07:00,-0.003412099555134770,-0.3796625137329100,-2.131661176681520,-0.1013877987861630,0.003567427396774290,0.0106540322303772
2022-11-11T23:59:18.816-07:00,0.05590075626969340,-0.3786433339118960,-2.128015995025640,-0.09012496471405030,0.01725080609321590,0.01630997657775880
2022-11-11T23:59:18.827-07:00,0.102278470993042,-0.3610673546791080,-2.114730358123780,-0.08423089981079100,0.02730506658554080,0.008576512336730960
2022-11-11T23:59:18.836-07:00,0.1375469863414760,-0.3400648832321170,-2.118502140045170,-0.08531149476766590,0.04164764285087590,0.01002210378646850
2022-11-11T23:59:18.851-07:00,0.1572165787220000,-0.3372654318809510,-2.08484673500061,-0.07831670343875890,0.05905172228813170,0.02462673187255860
2022-11-11T23:59:18.857-07:00,0.1602387428283690,-0.3471747636795040,-2.049955368041990,-0.05671504884958270,0.07846051454544070,0.02580267190933230
2022-11-11T23:59:18.866-07:00,0.1465365588665010,-0.3518262803554540,-2.031458854675290,-0.04105681180953980,0.0948944091796875,0.0344623327255249
2022-11-11T23:59:18.876-07:00,0.113872617483139,-0.3681964576244350,-2.025309085845950,-0.0332510694861412,0.09590557217597960,0.03651547431945800
2022-11-11T23:59:18.887-07:00,0.07555678486824040,-0.4136135876178740,-2.023123502731320,-0.02195393294095990,0.09711739420890810,0.04068541526794430
2022-11-11T23:59:18.897-07:00,0.02914321236312390,-0.4561522603034970,-2.028509855270390,-0.01273295283317570,0.1002043485641480,0.03360813856124880
2022-11-11T23:59:18.907-07:00,-0.01700344309210780,-0.4792531132698060,-2.020729303359990,-0.01549336314201360,0.1042323410511020,0.02813231945037840
2022-11-11T23:59:18.917-07:00,-0.05698761343955990,-0.4879795014858250,-2.01160717010498,-0.02314141392707830,0.1088667809963230,0.03512167930603030
2022-11-11T23:59:18.927-07:00,-0.08156202733516690,-0.4914079606533050,-2.011720895767210,-0.0283600389957428,0.1071206033229830,0.04120790958404540
2022-11-11T23:59:18.937-07:00,-0.08615012466907500,-0.4658088684082030,-2.007229566574100,-0.028213270008564,0.1077777445316320,0.05447542667388920
2022-11-11T23:59:18.947-07:00,-0.06765813380479810,-0.4310272336006170,-1.997091054916380,-0.02941339462995530,0.1111887395381930,0.07119083404541020
2022-11-11T23:59:18.957-07:00,-0.0389615073800087,-0.4218246936798100,-1.992283225059510,-0.02046360075473790,0.1179230064153670,0.07623863220214840
2022-11-11T23:59:18.967-07:00,0.001468975096940990,-0.4102396368980410,-1.981536984443670,-0.00121016800403595,0.1326519995927810,0.06213551759719850
2022-11-11T23:59:18.977-07:00,0.05713383108377460,-0.4072531759738920,-1.965425968170170,0.01325127482414250,0.1402381658554080,0.05399757623672490
2022-11-11T23:59:18.987-07:00,0.09850028157234190,-0.399577260017395,-1.958842396736150,0.01701643317937850,0.1299732327461240,0.05595701932907100
2022-11-11T23:59:18.997-07:00,0.09852105379104610,-0.3924133479595180,-1.938503742218020,0.01071196049451830,0.1296933740377430,0.04702281951904300
2022-11-11T23:59:19.007-07:00,0.096988745033741,-0.3997424244880680,-1.909746766090390,0.01071516424417500,0.129589781165123,0.04840558767318730
2022-11-11T23:59:19.017-07:00,0.08489479124546050,-0.4146819710731510,-1.898358821868900,0.01657181978225710,0.1214094907045360,0.05003249645233150
2022-11-11T23:59:19.027-07:00,0.06316686421632770,-0.4113825857639310,-1.900786519050600,0.01731722056865690,0.1157024800777440,0.03783887624740600
2022-11-11T23:59:19.037-07:00,0.03821250796318050,-0.3905963599681850,-1.893491387367250,0.0104096382856369,0.1115071624517440,0.02290576696395870
2022-11-11T23:59:19.047-07:00,0.02920393086969850,-0.3750869929790500,-1.868788599967960,0.001000344753265380,0.1159808933734890,0.02924656867980960
2022-11-11T23:59:19.057-07:00,0.02571519277989860,-0.3519438505172730,-1.836883187294010,-0.001896753907203670,0.1228636205196380,0.04289567470550540
2022-11-11T23:59:19.067-07:00,0.02679383754730230,-0.3293717801570890,-1.810455799102780,0.001262553036212920,0.1184732764959340,0.04046273231506350
2022-11-11T23:59:19.077-07:00,0.01117386668920520,-0.3196943700313570,-1.801280975341800,0.004211112856864930,0.1027937680482860,0.03340286016464230
2022-11-11T23:59:19.087-07:00,-0.01828179508447650,-0.3154982328414920,-1.801179528236390,0.007197163999080660,0.09137058258056640,0.0201755166053772
2022-11-11T23:59:19.097-07:00,-0.03480031713843350,-0.2974486649036410,-1.795491337776180,0.001947976648807530,0.08754268288612370,0.006564438343048100
2022-11-11T23:59:19.107-07:00,-0.02675953507423400,-0.273470014333725,-1.775320410728460,-0.003871425986289980,0.09158989787101750,0.0008696317672729490
2022-11-11T23:59:19.117-07:00,-0.01328979898244140,-0.2606615424156190,-1.75203800201416,-0.006665512919425960,0.09552839398384090,0.003843307495117190
2022-11-11T23:59:19.127-07:00,-0.003436336293816570,-0.2449073791503910,-1.732976675033570,0.001105636358261110,0.09104108810424810,0.008216559886932370
2022-11-11T23:59:19.137-07:00,0.00232088565826416,-0.2214356064796450,-1.719146966934200,0.008032225072383880,0.07565343379974370,0.01150518655776980
2022-11-11T23:59:19.147-07:00,-0.004856865853071210,-0.1851407140493390,-1.710647225379940,0.00358600914478302,0.05734814703464510,0.01281982660293580
2022-11-11T23:59:19.158-07:00,-0.004033949226140980,-0.1414582133293150,-1.688804149627690,-0.01348856836557390,0.0614139586687088,0.01095515489578250
2022-11-11T23:59:19.168-07:00,-0.005729051306843760,-0.1090725883841520,-1.662426114082340,-0.02255939692258840,0.07746799290180210,0.006841957569122310
2022-11-11T23:59:19.178-07:00,-0.04513105005025860,-0.09383158385753630,-1.635806560516360,-0.02156630158424380,0.08596627414226530,0.009391427040100100
2022-11-11T23:59:19.188-07:00,-0.1051684841513630,-0.08860839158296590,-1.610714554786680,-0.01030798256397250,0.07617850601673130,0.01753377914428710
2022-11-11T23:59:19.198-07:00,-0.1666872501373290,-0.09305187314748760,-1.591940879821780,0.002765685319900510,0.05258911848068240,0.02137100696563720
2022-11-11T23:59:19.208-07:00,-0.1975956857204440,-0.09079637378454210,-1.58787727355957,0.01173752546310430,0.034250408411026,0.03497236967086790
2022-11-11T23:59:19.218-07:00,-0.2064421772956850,-0.08545886725187300,-1.573775053024290,0.01227663457393650,0.03436370193958280,0.04462093114852910
2022-11-11T23:59:19.228-07:00,-0.1739303022623060,-0.08009233325719830,-1.558909058570860,0.01108602434396740,0.05125138163566590,0.04517132043838500
2022-11-11T23:59:19.238-07:00,-0.1045467108488080,-0.07177900522947310,-1.551319003105160,0.009584710001945500,0.06757915019989010,0.040549635887146
2022-11-11T23:59:19.248-07:00,-0.03454988077282910,-0.07340609282255170,-1.550153970718380,0.006618812680244450,0.07219839096069340,0.03485697507858280
2022-11-11T23:59:19.258-07:00,0.01370553486049180,-0.09058374911546710,-1.543158173561100,0.004727572202682500,0.06609739363193510,0.03565859794616700
2022-11-11T23:59:19.268-07:00,0.0358198881149292,-0.1175096407532690,-1.542454242706300,0.008144564926624300,0.05774053931236270,0.04203516244888310
2022-11-11T23:59:19.278-07:00,0.0311961118131876,-0.1396924406290050,-1.53839099407196,0.01273213326931,0.04541954398155210,0.04424643516540530
2022-11-11T23:59:19.288-07:00,-0.01538450736552480,-0.1503229141235350,-1.524167776107790,0.007896691560745240,0.04269799590110780,0.04764485359191900
2022-11-11T23:59:19.298-07:00,-0.07252928614616390,-0.1563123613595960,-1.496384978294370,-0.0008409544825553890,0.04382310807704930,0.0480923056602478
2022-11-11T23:59:19.308-07:00,-0.111174687743187,-0.1628581583499910,-1.481627345085140,-0.00306093692779541,0.04575841128826140,0.04556679725646970
2022-11-11T23:59:19.318-07:00,-0.1253030151128770,-0.1606432050466540,-1.484860420227050,0.005904287099838260,0.04684239625930790,0.03777825832366940
2022-11-11T23:59:19.328-07:00,-0.1148305684328080,-0.1521627306938170,-1.47740626335144,0.01312375068664550,0.05476681888103490,0.03023999929428100
2022-11-11T23:59:19.338-07:00,-0.108734056353569,-0.141056016087532,-1.442727446556090,0.01606038212776180,0.06004464626312260,0.02766257524490360
2022-11-11T23:59:19.363-07:00,-0.09169626235961910,-0.1358146071434020,-1.410199999809270,0.01380868256092070,0.05950476229190830,0.03388744592666630
2022-11-11T23:59:19.365-07:00,-0.06794458627700810,-0.1304504722356800,-1.385737061500550,0.01190412044525150,0.05674387514591220,0.04017829895019530
2022-11-11T23:59:19.368-07:00,-0.02805309742689130,-0.1326348036527630,-1.37114691734314,0.01336391270160680,0.05349679291248320,0.03661656379699710
2022-11-11T23:59:19.379-07:00,0.04199709370732310,-0.142170250415802,-1.348184585571290,0.0175146758556366,0.05660973489284520,0.02369409799575810
2022-11-11T23:59:19.388-07:00,0.1137395799160000,-0.1448111832141880,-1.315570473670960,0.01985980570316320,0.06180812418460850,0.01447194814682010
2022-11-11T23:59:19.400-07:00,0.167003870010376,-0.1500850319862370,-1.290289402008060,0.0212743878364563,0.06475538015365600,0.001028299331665040
2022-11-11T23:59:19.409-07:00,0.1888070404529570,-0.1731862127780910,-1.265052676200870,0.02353192865848540,0.05920033156871800,-0.001685917377471920
2022-11-11T23:59:19.419-07:00,0.1686636805534360,-0.1986476331949230,-1.244057059288030,0.03005018830299380,0.05119961500167850,0.008313894271850590
2022-11-11T23:59:19.429-07:00,0.1271532624959950,-0.2163363546133040,-1.213164210319520,0.03424835205078130,0.04015706479549410,0.02494335174560550
2022-11-11T23:59:19.439-07:00,0.07433345913887020,-0.2199569195508960,-1.17556357383728,0.03053140640258790,0.0229104608297348,0.04023361206054690
2022-11-11T23:59:19.449-07:00,0.02758343331515790,-0.2419305592775350,-1.141342997550960,0.02884696424007420,0.01904703676700590,0.04695188999176030
2022-11-11T23:59:19.459-07:00,-0.007125278003513810,-0.2693134546279910,-1.113934278488160,0.031468465924263,0.02584066987037660,0.04554873704910280
2022-11-11T23:59:19.469-07:00,-0.01566244103014470,-0.2874886095523830,-1.091436147689820,0.0340493768453598,0.03817209601402280,0.03234237432479860
2022-11-11T23:59:19.479-07:00,-0.009625320322811600,-0.2910982370376590,-1.072661399841310,0.02605524659156800,0.03321553766727450,0.02494347095489500
2022-11-11T23:59:19.489-07:00,-0.006599071435630320,-0.2921479046344760,-1.051280975341800,0.01505482196807860,0.03354229032993320,0.02847635746002200
2022-11-11T23:59:19.499-07:00,0.001358453184366230,-0.2991123199462890,-1.026105046272280,0.01060061156749730,0.03673349320888520,0.03898757696151730
2022-11-11T23:59:19.509-07:00,0.01588163524866100,-0.32035893201828,-1.013691306114200,0.009822174906730650,0.03125901520252230,0.0519939661026001
2022-11-11T23:59:19.519-07:00,-0.01287597604095940,-0.3404332995414730,-1.001225113868710,0.005621388554573060,0.02629892528057100,0.0527958869934082
2022-11-11T23:59:19.529-07:00,-0.05491923540830610,-0.3586922585964200,-0.9864149689674380,0.002699360251426700,0.02305866777896880,0.04645711183547970
2022-11-11T23:59:19.539-07:00,-0.1126472428441050,-0.3628702461719510,-0.9760086536407470,-0.0002618283033370970,0.01480796933174130,0.0344308614730835
2022-11-11T23:59:19.549-07:00,-0.1531451940536500,-0.3603244721889500,-0.9644784927368160,-0.003506414592266080,0.01370967924594880,0.01919162273406980
2022-11-11T23:59:19.559-07:00,-0.1612662374973300,-0.3527565598487850,-0.9369344711303710,-0.004551753401756290,0.02544064819812780,0.02510219812393190
2022-11-11T23:59:19.569-07:00,-0.1725178360939030,-0.3490531742572780,-0.8985047936439510,0.005739390850067140,0.03639252483844760,0.02992510795593260
2022-11-11T23:59:19.579-07:00,-0.1923003196716310,-0.3542159795761110,-0.8672707080841060,0.01731648296117780,0.03861160576343540,0.03524661064147950
2022-11-11T23:59:19.589-07:00,-0.2047628462314610,-0.3646456897258760,-0.8438830971717830,0.02567747980356220,0.02733241021633150,0.04562002420425420
2022-11-11T23:59:19.599-07:00,-0.20651575922966,-0.3782334327697750,-0.8328269720077520,0.04036460816860200,0.0144733339548111,0.03582996129989620
2022-11-11T23:59:19.609-07:00,-0.1714725643396380,-0.3873153030872350,-0.8071868419647220,0.05382571369409560,0.01931148767471310,0.02205169200897220
2022-11-11T23:59:19.619-07:00,-0.08211100846529010,-0.3888245224952700,-0.7707524299621580,0.06082162261009220,0.03464078903198240,0.01635932922363280
2022-11-11T23:59:19.629-07:00,0.01215154491364960,-0.3828965127468110,-0.7449312210083010,0.06519931554794310,0.04379788041114810,0.01091033220291140
2022-11-11T23:59:19.639-07:00,0.09893704205751420,-0.3836477994918820,-0.7178812026977540,0.06186635047197340,0.05114294588565830,0.005862653255462650
2022-11-11T23:59:19.649-07:00,0.1680589616298680,-0.3911620378494260,-0.6898429393768310,0.0635552853345871,0.05550864338874820,0.006447196006774900
2022-11-11T23:59:19.659-07:00,0.2111744731664660,-0.4175816476345060,-0.6814294457435610,0.07058759778738020,0.05060254037380220,0.002749860286712650
2022-11-11T23:59:19.669-07:00,0.2313849776983260,-0.4384302496910100,-0.6839520335197450,0.07576822489500050,0.04193398356437680,-0.007546067237854000
2022-11-11T23:59:19.680-07:00,0.2273420244455340,-0.4529466032981870,-0.6865094900131230,0.0759265124797821,0.04224368929862980,-0.02097880840301510
2022-11-11T23:59:19.690-07:00,0.2196983397006990,-0.4672358930110930,-0.6715810894966130,0.07468810677528380,0.0480198860168457,-0.03037101030349730
2022-11-11T23:59:19.700-07:00,0.1878498643636700,-0.4703363478183750,-0.640902578830719,0.07541903853416440,0.04476690292358400,-0.02989119291305540
2022-11-11T23:59:19.710-07:00,0.1316855996847150,-0.4696790277957920,-0.612448513507843,0.07872815430164340,0.04436489939689640,-0.01909983158111570
2022-11-11T23:59:19.720-07:00,0.06325088441371920,-0.4615345597267150,-0.5863050818443300,0.08045928180217740,0.0345253050327301,-0.002631783485412600
2022-11-11T23:59:19.730-07:00,-0.02538431063294410,-0.4487144947052000,-0.5634580850601200,0.07978924363851550,0.02536512911319730,0.009363114833831790
2022-11-11T23:59:19.740-07:00,-0.08357305079698560,-0.4445099234580990,-0.53936368227005,0.07910163700580600,0.02736552059650420,0.0138360857963562
2022-11-11T23:59:19.750-07:00,-0.1141263693571090,-0.4401732683181760,-0.5219114422798160,0.07541410624980930,0.04042308032512670,0.002844929695129400
2022-11-11T23:59:19.760-07:00,-0.1168065667152410,-0.422376960515976,-0.4931420981884000,0.07686552405357360,0.05021931231021880,-0.01934814453125
2022-11-11T23:59:19.770-07:00,-0.1237253248691560,-0.4047073125839230,-0.4459032416343690,0.07017000764608380,0.04744771122932430,-0.03219467401504520
2022-11-11T23:59:19.780-07:00,-0.1382230520248410,-0.3824888169765470,-0.4078626334667210,0.06895866990089420,0.03478634357452390,-0.03096586465835570
2022-11-11T23:59:19.790-07:00,-0.156782940030098,-0.3565852344036100,-0.3771784901618960,0.06937634944915770,0.01682297885417940,-0.02193200588226320
2022-11-11T23:59:19.800-07:00,-0.168549582362175,-0.3324612677097320,-0.3561792075634000,0.06689863651990890,0.009101882576942440,-0.008414864540100100
2022-11-11T23:59:19.810-07:00,-0.1820061802864080,-0.3145124614238740,-0.3369764685630800,0.06688558310270310,0.009069815278053280,0.004391729831695560
2022-11-11T23:59:19.820-07:00,-0.2042433023452760,-0.2921381890773770,-0.322652131319046,0.06597950309515000,0.01342649757862090,0.01451563835144040
2022-11-11T23:59:19.830-07:00,-0.2317632436752320,-0.2843682467937470,-0.3157526850700380,0.06270657479763030,0.01799873262643810,0.01766467094421390
2022-11-11T23:59:19.840-07:00,-0.2513965964317320,-0.2868289947509770,-0.3156219124794010,0.06341695040464400,0.01169991493225100,0.01313996315002440
2022-11-11T23:59:19.863-07:00,-0.2663977742195130,-0.2960847020149230,-0.3344214260578160,0.06588727235794070,0.01090119779109960,-0.007488548755645750
2022-11-11T23:59:19.865-07:00,-0.2676050066947940,-0.2892683446407320,-0.342456191778183,0.06488820165395740,0.01232420653104780,-0.02520853281021120
2022-11-11T23:59:19.870-07:00,-0.2633312344551090,-0.2803967297077180,-0.3246966600418090,0.0614597275853157,0.02077533304691320,-0.03306108713150020
2022-11-11T23:59:19.881-07:00,-0.2744307518005370,-0.2692306339740750,-0.3044712841510770,0.05909931287169460,0.02707898616790770,-0.02679657936096190
2022-11-11T23:59:19.890-07:00,-0.3075748980045320,-0.2506188452243810,-0.2957800626754760,0.06328742206096650,0.02256546914577480,-0.01312345266342160
2022-11-11T23:59:19.900-07:00,-0.3455536961555480,-0.2391832172870640,-0.2951152920722960,0.06496004015207290,0.01343846321105960,-0.0007610321044921880
2022-11-11T23:59:19.911-07:00,-0.3766739666461950,-0.2288236171007160,-0.2909338772296910,0.06508299708366390,0.01199808716773990,0.004707932472229000
2022-11-11T23:59:19.920-07:00,-0.405396431684494,-0.2220037877559660,-0.2884393036365510,0.06249015405774120,0.009741947054862980,-0.001319050788879400
2022-11-11T23:59:19.930-07:00,-0.454592376947403,-0.2101698666810990,-0.2817579805850980,0.05826804041862490,0.006681226193904880,-0.01392471790313720
2022-11-11T23:59:19.940-07:00,-0.513136625289917,-0.1919416040182110,-0.2815214693546300,0.05139482766389850,0.006503932178020480,-0.01763004064559940
2022-11-11T23:59:19.950-07:00,-0.6103311777114870,-0.1733539700508120,-0.2914718389511110,0.04748376458883290,0.006677299737930300,-0.01358246803283690
2022-11-11T23:59:19.960-07:00,-0.764899730682373,-0.1663748919963840,-0.3046883046627050,0.04443924501538280,0.002062343060970310,-0.0002023577690124510
2022-11-11T23:59:19.970-07:00,-0.9779883027076720,-0.1674705147743230,-0.339458554983139,0.04688466712832450,-0.007827132940292360,0.0195649266242981
2022-11-11T23:59:19.981-07:00,-1.212164640426640,-0.1833570599555970,-0.3807125091552730,0.04995767399668690,-0.02816981822252270,0.04509502649307250
2022-11-11T23:59:19.991-07:00,-1.436646699905400,-0.2110428214073180,-0.4097481667995450,0.05336913466453550,-0.04880537092685700,0.0722578763961792
2022-11-11T23:59:20.001-07:00,-1.609110593795780,-0.2343148589134220,-0.4311695694923400,0.05842383205890660,-0.05981457233428960,0.09643548727035520
2022-11-11T23:59:20.011-07:00,-1.721397399902340,-0.2582188844680790,-0.4642742276191710,0.06894382834434510,-0.06510938704013820,0.09648829698562620
2022-11-11T23:59:20.021-07:00,-1.838988184928890,-0.2615196108818050,-0.4887558817863460,0.07386606931686400,-0.06367110460996630,0.08804917335510250
2022-11-11T23:59:20.031-07:00,-2.062050819396970,-0.2608729600906370,-0.4820114374160770,0.07228340953588490,-0.05391012132167820,0.08797913789749150
2022-11-11T23:59:20.041-07:00,-2.360057830810550,-0.2879863381385800,-0.4692929685115810,0.0680842325091362,-0.0524916872382164,0.09995812177658080
2022-11-11T23:59:20.051-07:00,-2.676332473754880,-0.3404330611228940,-0.4873774349689480,0.07273329049348830,-0.06469374895095830,0.132620632648468
2022-11-11T23:59:20.061-07:00,-2.960249900817870,-0.4097021520137790,-0.5261666178703310,0.08395756036043170,-0.0780642032623291,0.168430507183075
2022-11-11T23:59:20.071-07:00,-3.195114374160770,-0.4891186356544500,-0.56963711977005,0.09577499330043790,-0.09268036484718320,0.1957159042358400
2022-11-11T23:59:20.081-07:00,-3.286322116851810,-0.5803521275520330,-0.590706467628479,0.09934094548225400,-0.1054564565420150,0.1875212788581850
2022-11-11T23:59:20.091-07:00,-3.256866931915280,-0.6571774482727050,-0.5961560606956480,0.09006665647029880,-0.1145713478326800,0.1311500072479250
2022-11-11T23:59:20.101-07:00,-3.142250776290890,-0.6732754707336430,-0.5938620567321780,0.05730403214693070,-0.0885186642408371,0.07375788688659670
2022-11-11T23:59:20.111-07:00,-2.991091728210450,-0.6260275840759280,-0.6115928888320920,0.01575931161642080,-0.04080367088317870,0.03960967063903810
2022-11-11T23:59:20.121-07:00,-2.835172653198240,-0.5963082909584050,-0.6191551685333250,-0.01330071687698360,-0.0006803274154663090,0.03465235233306890
2022-11-11T23:59:20.131-07:00,-2.709222316741940,-0.593219518661499,-0.6386761665344240,-0.02106842398643490,0.01598230004310610,0.05270475149154660
2022-11-11T23:59:20.141-07:00,-2.597733497619630,-0.607938289642334,-0.6886274814605710,-0.0120231956243515,0.02105560898780820,0.06033128499984740
2022-11-11T23:59:20.151-07:00,-2.525882720947270,-0.6373155117034910,-0.7325333952903750,-0.002220585942268370,0.002572059631347660,0.06643325090408330
2022-11-11T23:59:20.161-07:00,-2.513674020767210,-0.6676068305969240,-0.7553430795669560,0.001602083444595340,-0.02753177285194400,0.07083278894424440
2022-11-11T23:59:20.171-07:00,-2.535081624984740,-0.7027424573898320,-0.7494364976882940,0.007593989372253420,-0.0531175434589386,0.07179337739944460
2022-11-11T23:59:20.181-07:00,-2.535290956497190,-0.7427258491516110,-0.7237817049026490,0.01385408639907840,-0.06938356161117550,0.06850838661193850
2022-11-11T23:59:20.191-07:00,-2.471461772918700,-0.7868250608444210,-0.6872122883796690,0.0152958482503891,-0.06122693419456480,0.0580022931098938
2022-11-11T23:59:20.201-07:00,-2.3384690284729,-0.808588445186615,-0.6411228179931640,0.01240234076976780,-0.02566403150558470,0.04240936040878300
2022-11-11T23:59:20.211-07:00,-2.158468246459960,-0.8220041394233700,-0.6092268824577330,0.006330564618110660,0.01768803596496580,0.01164847612380980
2022-11-11T23:59:20.221-07:00,-1.916128635406490,-0.8266640901565550,-0.5894710421562200,-0.001333341002464290,0.04766017198562620,-0.01669436693191530
2022-11-11T23:59:20.231-07:00,-1.650122046470640,-0.8302841186523440,-0.539523720741272,-0.008863747119903560,0.06020486354827880,-0.0333976149559021
2022-11-11T23:59:20.241-07:00,-1.383543610572820,-0.8142803907394410,-0.5059583187103270,-0.009545192122459410,0.08303624391555790,-0.04250675439834600
2022-11-11T23:59:20.251-07:00,-1.067818760871890,-0.7744698524475100,-0.5122460722923280,-0.01718451082706450,0.09804093837738040,-0.04166454076766970
2022-11-11T23:59:20.261-07:00,-0.7591301202774050,-0.719010055065155,-0.5159462690353390,-0.02672179043293000,0.09705841541290280,-0.03176987171173100
2022-11-11T23:59:20.271-07:00,-0.5016213655471800,-0.678913950920105,-0.5167824625968930,-0.03018353879451750,0.09606647491455080,-0.0207897424697876
2022-11-11T23:59:20.281-07:00,-0.310909241437912,-0.6557966470718380,-0.5245476961135860,-0.0218416303396225,0.09361565113067630,-0.026114821434021
2022-11-11T23:59:20.291-07:00,-0.224696546792984,-0.6266036033630370,-0.5206781625747680,-0.01034611463546750,0.07721084356307980,-0.02520811557769780
2022-11-11T23:59:20.301-07:00,-0.2690472304821010,-0.6021217107772830,-0.5069524645805360,-0.008033335208892820,0.04374778270721440,-0.01608526706695560
2022-11-11T23:59:20.312-07:00,-0.4814282655715940,-0.5904913544654850,-0.4650609493255620,-0.008425518870353700,-0.01114094257354740,0.003192663192749020
2022-11-11T23:59:20.321-07:00,-0.8218657374382020,-0.6033909320831300,-0.441571056842804,-0.004921838641166690,-0.06556391716003420,0.02990782260894780
2022-11-11T23:59:20.331-07:00,-1.204626560211180,-0.6218011975288390,-0.4537909924983980,0.00269964337348938,-0.1225039958953860,0.06798958778381350
2022-11-11T23:59:20.346-07:00,-1.568971753120420,-0.6460681557655330,-0.4834831058979030,0.01144519448280330,-0.1721864938735960,0.09744387865066530
2022-11-11T23:59:20.356-07:00,-1.863460779190060,-0.6806380748748780,-0.5137802362442020,0.01770257949829100,-0.2051650881767270,0.09988772869110110
2022-11-11T23:59:20.362-07:00,-2.073149442672730,-0.7312338948249820,-0.5491587519645690,0.01900994777679440,-0.2229393124580380,0.06984877586364750
2022-11-11T23:59:20.372-07:00,-2.164868354797360,-0.757240355014801,-0.6059647798538210,0.007536768913269040,-0.2092901468276980,0.0427020788192749
2022-11-11T23:59:20.382-07:00,-2.14322829246521,-0.7511142492294310,-0.6613444089889530,-0.01033073663711550,-0.1775140166282650,0.01954895257949830
2022-11-11T23:59:20.392-07:00,-2.075225353240970,-0.7444515824317930,-0.6820452213287350,-0.02566316723823550,-0.1484184265136720,-0.0005112886428833010
2022-11-11T23:59:20.402-07:00,-1.982123970985410,-0.7188932299613950,-0.7044565081596380,-0.03648170828819280,-0.131630003452301,-0.005497276782989500
2022-11-11T23:59:20.412-07:00,-1.913458824157720,-0.6761935949325560,-0.7448046803474430,-0.04460650682449340,-0.1254689693450930,-0.005916595458984380
2022-11-11T23:59:20.422-07:00,-1.897640705108640,-0.6237930059432980,-0.7752968072891240,-0.05149495601654050,-0.1189152002334600,-0.001150190830230710
2022-11-11T23:59:20.432-07:00,-1.904885053634640,-0.5723034739494320,-0.8129022717475890,-0.05750483274459840,-0.1163739562034610,0.02053028345108030
2022-11-11T23:59:20.442-07:00,-1.909637451171880,-0.5126779675483700,-0.8563187122344970,-0.05646488070487980,-0.1210549473762510,0.04446548223495480
2022-11-11T23:59:20.453-07:00,-1.953361511230470,-0.4740289747715000,-0.907722532749176,-0.0512164831161499,-0.122373104095459,0.05931437015533450
2022-11-11T23:59:20.463-07:00,-2.037955284118650,-0.4627268016338350,-0.9767146110534670,-0.04528984427452090,-0.1162328720092770,0.07104384899139400
2022-11-11T23:59:20.472-07:00,-2.116468906402590,-0.4868955910205840,-1.043072581291200,-0.03788000345230100,-0.1215746402740480,0.08347493410110470
2022-11-11T23:59:20.482-07:00,-2.235336303710940,-0.5492657423019410,-1.060982704162600,-0.03083401918411260,-0.1271568536758420,0.08023947477340700
2022-11-11T23:59:20.492-07:00,-2.429180383682250,-0.6127288937568670,-1.055288553237920,-0.0335802435874939,-0.09875404834747310,0.0523717999458313
2022-11-11T23:59:20.502-07:00,-2.546734094619750,-0.6413285732269290,-1.105212450027470,-0.05427899956703190,-0.05303364992141720,0.0153127908706665
2022-11-11T23:59:20.512-07:00,-2.615315437316900,-0.6207749247550960,-1.160310029983520,-0.08383488655090330,-0.03364074230194090,-0.00776749849319458
2022-11-11T23:59:20.522-07:00,-2.707578182220460,-0.5665817260742190,-1.170583486557010,-0.1069227457046510,-0.01499009132385250,-0.03410661220550540
2022-11-11T23:59:20.532-07:00,-2.727415800094600,-0.5225091576576230,-1.160468935966490,-0.1094129681587220,0.000194847583770752,-0.04400253295898440
2022-11-11T23:59:20.542-07:00,-2.68525505065918,-0.4998147785663610,-1.149283170700070,-0.09345364570617680,-0.008998990058898930,-0.03245609998703000
2022-11-11T23:59:20.557-07:00,-2.599751234054570,-0.4644930362701420,-1.135252594947820,-0.07398808002471920,-0.01067030429840090,-0.01964038610458370
2022-11-11T23:59:20.584-07:00,-2.475731134414670,-0.4194286167621610,-1.121512770652770,-0.0626184344291687,-0.001160204410552980,-0.01809096336364750
2022-11-11T23:59:20.589-07:00,-2.339911222457890,-0.3655858933925630,-1.11709201335907,-0.05422690510749820,0.01348906755447390,-0.02639248967170720
2022-11-11T23:59:20.590-07:00,-2.256369829177860,-0.3285514414310460,-1.119311213493350,-0.04918968677520750,0.01849931478500370,-0.04367592930793760
2022-11-11T23:59:20.593-07:00,-2.260367393493650,-0.2950599491596220,-1.126850008964540,-0.03968292474746700,0.01205354928970340,-0.0527559220790863
2022-11-11T23:59:20.602-07:00,-2.295383930206300,-0.2697196900844570,-1.154105663299560,-0.02555310726165770,-0.002734839916229250,-0.05794456601142880
2022-11-11T23:59:20.613-07:00,-2.301616191864010,-0.2479986399412160,-1.206544876098630,-0.01810872554779050,-0.02350062131881710,-0.05747255682945250
2022-11-11T23:59:20.622-07:00,-2.344415426254270,-0.2387585341930390,-1.244018793106080,-0.01467221975326540,-0.03232651948928830,-0.05512210726737980
2022-11-11T23:59:20.633-07:00,-2.449683427810670,-0.2282137870788570,-1.270151257514950,-0.01424819231033330,-0.01808202266693120,-0.05366125702857970
2022-11-11T23:59:20.642-07:00,-2.627158164978030,-0.2224483042955400,-1.282365083694460,-0.0133017897605896,-0.02399051189422610,-0.0481603741645813
2022-11-11T23:59:20.653-07:00,-2.83902907371521,-0.1944679021835330,-1.277944803237920,-0.007527947425842290,-0.05671966075897220,-0.03495144844055180
2022-11-11T23:59:20.663-07:00,-3.012479305267330,-0.1498399823904040,-1.287233829498290,-0.006126344203948980,-0.09378635883331300,-0.02601528167724610
2022-11-11T23:59:20.673-07:00,-3.144814252853390,-0.09294673800468450,-1.300111413002010,-0.01597082614898680,-0.1114127039909360,-0.02995799481868740
2022-11-11T23:59:20.683-07:00,-3.266757488250730,-0.025051049888134,-1.322977781295780,-0.03604340553283690,-0.09065675735473630,-0.03068059682846070
2022-11-11T23:59:20.693-07:00,-3.425168037414550,0.03930167853832250,-1.333003163337710,-0.05679416656494140,-0.05493760108947750,-0.03727006912231450
2022-11-11T23:59:20.703-07:00,-3.588869571685790,0.1079981848597530,-1.348128318786620,-0.0733567476272583,-0.03730928897857670,-0.03905689716339110
2022-11-11T23:59:20.713-07:00,-3.702036142349240,0.2067137807607650,-1.36564564704895,-0.08115088939666750,-0.04581671953201290,-0.03017294406890870
2022-11-11T23:59:20.723-07:00,-3.75498366355896,0.3280399441719060,-1.39616858959198,-0.08844608068466190,-0.04948729276657100,-0.02446270175278190
2022-11-11T23:59:20.733-07:00,-3.834816694259640,0.4270153045654300,-1.408756256103520,-0.1021402478218080,-0.02083641290664670,-0.03778493404388430
2022-11-11T23:59:20.743-07:00,-3.906231880187990,0.5123398303985600,-1.394427895545960,-0.1092506647109990,0.01893156766891480,-0.04620981216430660
2022-11-11T23:59:20.753-07:00,-3.906930685043340,0.586365282535553,-1.387157797813420,-0.1051714420318600,0.04008263349533080,-0.04088175296783450
2022-11-11T23:59:20.763-07:00,-3.861586332321170,0.6759795546531680,-1.366748213768010,-0.1010483503341680,0.03984582424163820,-0.03214360028505330
2022-11-11T23:59:20.773-07:00,-3.784256219863890,0.7765987515449520,-1.327236652374270,-0.1009336709976200,0.04674643278121950,-0.02018380165100100
2022-11-11T23:59:20.783-07:00,-3.677762269973760,0.8679355978965760,-1.273797392845150,-0.1003699898719790,0.05142509937286380,-0.007898911833763120
2022-11-11T23:59:20.793-07:00,-3.508783340454100,0.9663273692131040,-1.215282917022710,-0.09444540739059450,0.0488465428352356,0.01171205937862400
2022-11-11T23:59:20.803-07:00,-3.234508991241460,1.06382417678833,-1.183074116706850,-0.08350479602813720,0.04745423793792730,0.03246080875396730
2022-11-11T23:59:20.813-07:00,-2.861231327056890,1.136523962020870,-1.170236468315130,-0.06788080930709840,0.05306702852249150,0.04768216609954830
2022-11-11T23:59:20.823-07:00,-2.461273431777950,1.163483619689940,-1.165766596794130,-0.05174916982650760,0.07955217361450200,0.04405929148197170
2022-11-11T23:59:20.833-07:00,-2.131933689117430,1.139793992042540,-1.148722410202030,-0.04199677705764770,0.1263085007667540,0.03415918350219730
2022-11-11T23:59:20.843-07:00,-1.966664671897890,1.107172131538390,-1.126566171646120,-0.04278749227523800,0.1760138869285580,0.03225016593933110
2022-11-11T23:59:20.853-07:00,-1.912170052528380,1.095006823539730,-1.121862769126890,-0.05608469247817990,0.216485857963562,0.05114743113517760
2022-11-11T23:59:20.863-07:00,-1.885335206985470,1.102098226547240,-1.11344587802887,-0.07101017236709600,0.2218000292778020,0.07177993655204770
2022-11-11T23:59:20.874-07:00,-1.861740589141850,1.085526704788210,-1.077932357788090,-0.07158392667770390,0.1947512626647950,0.08069232106208800
2022-11-11T23:59:20.884-07:00,-1.818241119384770,1.049256324768070,-1.030346989631650,-0.05617427825927730,0.1568918228149410,0.09283733367919920
2022-11-11T23:59:20.894-07:00,-1.727787494659420,0.9957200288772580,-0.9774736166000370,-0.04058152437210080,0.1344177722930910,0.09882450103759770
2022-11-11T23:59:20.904-07:00,-1.637707710266110,0.9325855374336240,-0.9038798213005070,-0.03060966730117800,0.1297314763069150,0.09781955182552340
2022-11-11T23:59:20.914-07:00,-1.499911427497860,0.8634056448936460,-0.8350786566734310,-0.02686959505081180,0.1334465742111210,0.08555276691913610
2022-11-11T23:59:20.924-07:00,-1.312384724617000,0.7894980907440190,-0.7941847443580630,-0.01584303379058840,0.1186373233795170,0.08024215698242190
2022-11-11T23:59:20.934-07:00,-1.125940680503850,0.7051562070846560,-0.7496116757392880,-0.001098096370697020,0.1018850803375240,0.07511532306671140
2022-11-11T23:59:20.944-07:00,-0.9663872122764590,0.615109384059906,-0.7005887627601620,0.005193471908569340,0.1078436374664310,0.06239199638366700
2022-11-11T23:59:20.957-07:00,-0.7762326002120970,0.5493382215499880,-0.6989602446556090,0.003769397735595700,0.1127656698226930,0.05276393890380860
2022-11-11T23:59:20.980-07:00,-0.5429457426071170,0.5076112747192380,-0.7168050408363340,-8.84532928466797E-05,0.1040712594985960,0.04970932006835940
2022-11-11T23:59:20.982-07:00,-0.3356229066848760,0.4855727553367620,-0.7298555970191960,-0.004822969436645510,0.1000383198261260,0.04723437130451200
2022-11-11T23:59:20.984-07:00,-0.1735306680202480,0.4579901397228240,-0.7358474731445310,-2.33650207519531E-05,0.1025636494159700,0.04471598565578460
2022-11-11T23:59:20.994-07:00,0.01424632035195830,0.4388682246208190,-0.7817709445953370,0.0128893256187439,0.08580076694488530,0.05585825443267820
2022-11-11T23:59:21.004-07:00,0.1746581047773360,0.4356993138790130,-0.8199873566627500,0.01851385831832890,0.05568554997444150,0.06423091888427730
2022-11-11T23:59:21.014-07:00,0.3086499273777010,0.4406278133392330,-0.8526870012283330,0.01515710353851320,0.04935702681541440,0.06291316449642180
2022-11-11T23:59:21.024-07:00,0.4199836254119870,0.4565801620483400,-0.891359269618988,0.005063772201538090,0.05159708857536320,0.06405043601989750
2022-11-11T23:59:21.035-07:00,0.500113844871521,0.4670227468013760,-0.9177093505859380,-0.001040220260620120,0.04796707630157470,0.06596255302429200
2022-11-11T23:59:21.044-07:00,0.5692319273948670,0.4644269645214080,-0.9485689997673040,0.0001492500305175780,0.03901520371437070,0.06582272052764890
2022-11-11T23:59:21.068-07:00,0.6379043459892270,0.4640151262283330,-0.9811980724334720,0.002178728580474850,0.03077709674835210,0.06804990768432620
2022-11-11T23:59:21.070-07:00,0.6820329427719120,0.4532657861709600,-1.004278898239140,0.001726388931274410,0.03049847483634950,0.06962978839874270
2022-11-11T23:59:21.074-07:00,0.6986150145530700,0.4276413917541500,-1.017510771751400,-0.001935243606567380,0.04241436719894410,0.06651854515075680
2022-11-11T23:59:21.084-07:00,0.7115481495857240,0.409026175737381,-1.026844620704650,-0.008681058883666990,0.05228918790817260,0.06401348114013670
2022-11-11T23:59:21.094-07:00,0.7508531212806700,0.3955256640911100,-1.037735819816590,-0.01682037115097050,0.05994832515716550,0.05716229975223540
2022-11-11T23:59:21.104-07:00,0.7904164791107180,0.3675504624843600,-1.041758060455320,-0.01894992589950560,0.07208383083343510,0.04986822605133060
2022-11-11T23:59:21.115-07:00,0.7860079407691960,0.321879118680954,-1.008087992668150,-0.01487654447555540,0.09105679392814640,0.0446774810552597
2022-11-11T23:59:21.125-07:00,0.75198894739151,0.2654832303524020,-0.9711307883262630,-0.01182925701141360,0.1049592792987820,0.03448974341154100
2022-11-11T23:59:21.134-07:00,0.7148063182830810,0.2126606106758120,-0.9301332831382750,-0.01277327537536620,0.1009992361068730,0.03614401817321780
2022-11-11T23:59:21.144-07:00,0.6176337003707890,0.166581004858017,-0.8559983372688290,-0.02087581157684330,0.09329906105995180,0.03242708742618560
2022-11-11T23:59:21.154-07:00,0.5268921256065370,0.1083117723464970,-0.7939272522926330,-0.02680814266204830,0.09802678227424620,0.02271938323974610
2022-11-11T23:59:21.165-07:00,0.4700760245323180,0.06025635823607450,-0.7511802911758420,-0.02761733531951900,0.09589120745658880,0.02830898016691210
2022-11-11T23:59:21.175-07:00,0.4347040057182310,0.01482322998344900,-0.6878239512443540,-0.03066384792327880,0.1002041697502140,0.02873420715332030
2022-11-11T23:59:21.184-07:00,0.4383589327335360,-0.03759230673313140,-0.622456431388855,-0.02990972995758060,0.1261563897132870,0.02916552126407620
2022-11-11T23:59:21.195-07:00,0.4159776866436010,-0.07690049707889560,-0.5488319993019100,-0.02700400352478030,0.1526716351509090,0.03174267709255220
2022-11-11T23:59:21.205-07:00,0.3642196953296660,-0.117206372320652,-0.456694096326828,-0.0221295952796936,0.163853794336319,0.03396831452846530
2022-11-11T23:59:21.215-07:00,0.338118314743042,-0.155753493309021,-0.3780384361743930,-0.01005935668945310,0.1487702429294590,0.04329405725002290
2022-11-11T23:59:21.225-07:00,0.3294079005718230,-0.1764132380485540,-0.3142296373844150,-0.0003895759582519530,0.1166097819805150,0.04927755892276760
2022-11-11T23:59:21.235-07:00,0.3431645035743710,-0.1944705694913860,-0.2660485208034520,0.007284224033355710,0.1034330129623410,0.04557383060455320
2022-11-11T23:59:21.245-07:00,0.3923493623733520,-0.2302911579608920,-0.2367915511131290,0.01653081178665160,0.103495329618454,0.03841687738895420
2022-11-11T23:59:21.255-07:00,0.4184967577457430,-0.2774927318096160,-0.2125882208347320,0.01932781934738160,0.1124950647354130,0.02683211863040920
2022-11-11T23:59:21.265-07:00,0.4028781354427340,-0.3031615912914280,-0.1722687631845470,0.01143038272857670,0.122149646282196,0.0106290876865387
2022-11-11T23:59:21.275-07:00,0.3925435841083530,-0.3257144391536710,-0.161466971039772,0.00602877140045166,0.1128855347633360,0.0006003379821777340
2022-11-11T23:59:21.285-07:00,0.366477906703949,-0.3531117141246800,-0.1517496258020400,0.006849825382232670,0.08575734496116640,-0.001793749630451200
2022-11-11T23:59:21.295-07:00,0.3715074360370640,-0.3817667067050930,-0.1346814334392550,0.01407140493392940,0.07547077536582950,0.001052848994731900
2022-11-11T23:59:21.305-07:00,0.4026262164115910,-0.403434157371521,-0.1348686516284940,0.01592838764190670,0.06857997179031370,0.004397168755531310
2022-11-11T23:59:21.315-07:00,0.4523256123065950,-0.4043085277080540,-0.1405449211597440,0.01019042730331420,0.06219390034675600,0.004588834941387180
2022-11-11T23:59:21.325-07:00,0.5014737844467160,-0.4032792150974270,-0.1429881006479260,0.003509819507598880,0.06496357917785650,0.001260891556739810
2022-11-11T23:59:21.335-07:00,0.5645914673805240,-0.3903562426567080,-0.1441188752651220,-0.0008171796798706060,0.06833192706108090,-0.00511680543422699
2022-11-11T23:59:21.345-07:00,0.6501090526580810,-0.3680416345596310,-0.159318596124649,0.002722024917602540,0.0680755078792572,-0.01156555116176610
2022-11-11T23:59:21.355-07:00,0.7497386336326600,-0.358108252286911,-0.1776392906904220,0.01882266998291020,0.06792467832565310,-0.01948833465576170
2022-11-11T23:59:21.365-07:00,0.850364625453949,-0.3602622151374820,-0.186650887131691,0.03972595930099490,0.06937712430953980,-0.02316904067993160
2022-11-11T23:59:21.375-07:00,0.9056735038757320,-0.3504326045513150,-0.1825461536645890,0.06005853414535520,0.07394948601722720,-0.02792228758335110
2022-11-11T23:59:21.385-07:00,0.9117063879966740,-0.3445022702217100,-0.1747281849384310,0.07387489080429080,0.07230216264724730,-0.03490078449249270
2022-11-11T23:59:21.395-07:00,0.9111879467964170,-0.3451487421989440,-0.1852146536111830,0.08604526519775390,0.05476370453834530,-0.03821446001529690
2022-11-11T23:59:21.405-07:00,0.8954007029533390,-0.3318246603012090,-0.1856415569782260,0.09029167890548710,0.037168949842453,-0.04180634021759030
2022-11-11T23:59:21.415-07:00,0.8638948202133180,-0.3058879375457760,-0.1833943724632260,0.07793718576431270,0.03832650184631350,-0.05048610270023350
2022-11-11T23:59:21.425-07:00,0.8513963222503660,-0.2794150412082670,-0.1820217818021770,0.06491899490356450,0.04727277159690860,-0.05076970160007480
2022-11-11T23:59:21.435-07:00,0.8490743041038510,-0.2377840131521230,-0.1842543035745620,0.05475562810897830,0.04836127161979680,-0.04821634292602540
2022-11-11T23:59:21.445-07:00,0.8551609516143800,-0.1935337334871290,-0.1774912178516390,0.04413115978240970,0.04780399799346920,-0.04234527051448820
2022-11-11T23:59:21.455-07:00,0.8329538702964780,-0.1404411494731900,-0.1598317921161650,0.03860026597976690,0.04890003800392150,-0.03843952715396880
2022-11-11T23:59:21.465-07:00,0.7323894500732420,-0.1059502884745600,-0.1252471804618840,0.03922253847122190,0.05391165614128110,-0.03571583330631260
2022-11-11T23:59:21.475-07:00,0.5722808241844180,-0.09129022061824800,-0.0795729011297226,0.04882901906967160,0.04894119501113890,-0.04034091532230380
2022-11-11T23:59:21.485-07:00,0.4010055363178250,-0.07976113259792330,-0.04084894806146620,0.0582352876663208,0.02493554353713990,-0.03409469127655030
2022-11-11T23:59:21.495-07:00,0.242572158575058,-0.05984944105148320,-0.009655342437326910,0.05328136682510380,0.001724928617477420,-0.03551970422267910
2022-11-11T23:59:21.505-07:00,0.118946373462677,-0.03325724601745610,0.01987724937498570,0.03356313705444340,0.006172120571136480,-0.03928112983703610
2022-11-11T23:59:21.515-07:00,0.03300067037343980,0.006633876822888850,0.04859358444809910,0.01207584142684940,0.02606526017189030,-0.0443274974822998
2022-11-11T23:59:21.525-07:00,-0.002761855721473690,0.04040142893791200,0.07941567897796630,0.00212395191192627,0.04220816493034360,-0.04533958435058590
2022-11-11T23:59:21.536-07:00,-0.02898676879704000,0.04562012478709220,0.1028182059526440,0.0008943080902099610,0.04982030391693120,-0.04206180572509770
2022-11-11T23:59:21.546-07:00,-0.04463284090161320,0.06051758304238320,0.1265578866004940,0.003002166748046880,0.05371919274330140,-0.03468383848667150
2022-11-11T23:59:21.556-07:00,-0.04583722352981570,0.07361350953578950,0.1614455729722980,-0.002000033855438230,0.05458512902259830,-0.03176261484622960
2022-11-11T23:59:21.566-07:00,-0.01508117280900480,0.08210127055644990,0.1843985617160800,-0.01034289598464970,0.05898317694664000,-0.02552507817745210
2022-11-11T23:59:21.576-07:00,0.0316992811858654,0.09940499067306520,0.1983684301376340,-0.02022576332092290,0.05882126092910770,-0.02311015129089360
2022-11-11T23:59:21.586-07:00,0.07585129886865620,0.1178407222032550,0.2197091430425640,-0.02571588754653930,0.05767342448234560,-0.02032507956027990
2022-11-11T23:59:21.596-07:00,0.1248559281229970,0.1084503531455990,0.232735201716423,-0.01845729351043700,0.04793700575828550,-0.01749277859926220
2022-11-11T23:59:21.606-07:00,0.1808606088161470,0.08704040199518200,0.2517386972904210,-0.006775081157684330,0.03388860821723940,-0.0166487842798233
2022-11-11T23:59:21.616-07:00,0.2348378002643590,0.07078982889652250,0.2586685121059420,-0.001480579376220700,0.02550381422042850,-0.01558661460876470
2022-11-11T23:59:21.626-07:00,0.2936960458755490,0.06054997444152830,0.2558229267597200,-0.001269757747650150,0.02257633209228520,-0.02129220962524410
2022-11-11T23:59:21.637-07:00,0.3679719865322110,0.04975474625825880,0.2450219541788100,-0.0008698105812072750,0.01632925868034360,-0.02165747433900830
2022-11-11T23:59:21.646-07:00,0.4292086958885190,0.02631999552249910,0.2292017191648480,0.003008842468261720,0.007603615522384640,-0.02051329612731930
2022-11-11T23:59:21.656-07:00,0.4826999604702000,0.006669796537607910,0.2124493569135670,0.00331723690032959,0.00438237190246582,-0.02315771579742430
2022-11-11T23:59:21.667-07:00,0.5374971628189090,0.01101474277675150,0.1786061674356460,-0.004237949848175050,-0.0002473890781402590,-0.02277065068483350
2022-11-11T23:59:21.679-07:00,0.528381884098053,0.02284247428178790,0.1496437788009640,-0.01251691579818730,-0.01077958941459660,-0.01975728571414950
2022-11-11T23:59:21.688-07:00,0.4799075424671170,0.02284460328519340,0.1321196407079700,-0.01278460025787350,-0.02235555648803710,-0.01690232753753660
2022-11-11T23:59:21.696-07:00,0.4159521758556370,0.02139804139733320,0.1070374548435210,-0.001672208309173580,-0.03946763277053830,-0.01118089258670810
2022-11-11T23:59:21.706-07:00,0.332084983587265,0.01784298755228520,0.08424744755029680,0.007236063480377200,-0.05368342995643620,-0.00709165632724762
2022-11-11T23:59:21.716-07:00,0.2682763934135440,0.01678095385432240,0.0560283288359642,0.01179850101470950,-0.05207967758178710,-0.00592195987701416
2022-11-11T23:59:21.726-07:00,0.2359967529773710,0.02393313869833950,0.02645978331565860,0.009811162948608400,-0.04446825385093690,-0.004863515496253970
2022-11-11T23:59:21.737-07:00,0.2112864255905150,0.04059114679694180,-0.002399560529738670,0.008835017681121830,-0.03015774488449100,-0.009122386574745180
2022-11-11T23:59:21.746-07:00,0.2271596491336820,0.04858488962054250,-0.02509288862347600,0.008503317832946780,-0.01802226901054380,-0.01209522783756260
2022-11-11T23:59:21.756-07:00,0.2601696252822880,0.05760731175541880,-0.04216641187667850,0.01635134220123290,-0.01527905464172360,-0.01213932037353520
2022-11-11T23:59:21.766-07:00,0.3079427480697630,0.06552062928676610,-0.05318843945860860,0.02345949411392210,-0.008947163820266720,-0.01319311559200290
2022-11-11T23:59:21.777-07:00,0.3543112277984620,0.07520318776369100,-0.06607600301504140,0.02712243795394900,-0.001198649406433110,-0.01140284538269040
2022-11-11T23:59:21.787-07:00,0.4195738434791570,0.07911643385887150,-0.08080302178859710,0.03025108575820920,0.008141964673995970,-0.009797096252441410
2022-11-11T23:59:21.797-07:00,0.4449703991413120,0.08245883136987690,-0.08772697299718860,0.03073906898498540,0.007757484912872310,-0.007798671722412110
2022-11-11T23:59:21.807-07:00,0.417669802904129,0.08004307746887210,-0.08191941678524020,0.02641439437866210,0.01047959923744200,-0.007735855877399450
2022-11-11T23:59:21.817-07:00,0.3783176243305210,0.08144097030162810,-0.0806775838136673,0.02345150709152220,0.00376322865486145,-0.007214188575744630
2022-11-11T23:59:21.827-07:00,0.3298779129982000,0.09443080425262450,-0.07901683449745180,0.01539182662963870,-0.008243560791015630,-0.006978884339332580
2022-11-11T23:59:21.837-07:00,0.2948125004768370,0.1059149950742720,-0.07005290687084200,0.006326079368591310,-0.008723467588424680,-0.007763631641864780
2022-11-11T23:59:21.847-07:00,0.2744859158992770,0.1137484163045880,-0.06042318046092990,0.003195583820343020,0.0003224015235900880,-0.006362222135066990
2022-11-11T23:59:21.857-07:00,0.2651557922363280,0.1145529523491860,-0.03865024074912070,0.007206499576568600,0.01057907938957210,-0.002256520092487340
2022-11-11T23:59:21.888-07:00,0.2719311416149140,0.1200864687561990,-0.0243607871234417,0.009891688823699950,0.0169212818145752,0.002756595611572270
2022-11-11T23:59:21.890-07:00,0.2922627925872800,0.1298850327730180,-0.01044656708836560,0.009216189384460450,0.01700496673583980,0.007985956966876980
2022-11-11T23:59:21.891-07:00,0.3344107866287230,0.1394836008548740,0.001496111508458850,0.007633030414581300,0.01858478784561160,0.01057695597410200
2022-11-11T23:59:21.897-07:00,0.3883468210697170,0.1383218318223950,0.009241916239261630,0.006858766078948980,0.02588135004043580,0.008538246154785160
2022-11-11T23:59:21.907-07:00,0.4195814430713650,0.1257461160421370,0.01874300837516790,0.00786978006362915,0.03268235921859740,0.002969264984130860
2022-11-11T23:59:21.917-07:00,0.3967660963535310,0.1013611778616910,0.04512934386730190,0.006215333938598630,0.04101318120956420,-0.00403296947479248
2022-11-11T23:59:21.927-07:00,0.3593800961971280,0.08452387899160390,0.07557300478219990,0.002910017967224120,0.03869161009788510,-0.01057743281126020
2022-11-11T23:59:21.939-07:00,0.3314565718173980,0.08281336724758150,0.102828323841095,-0.0063057541847229,0.01744404435157780,-0.01009774208068850
2022-11-11T23:59:21.947-07:00,0.2818008661270140,0.08755965530872350,0.1354936063289640,-0.01376229524612430,0.001495152711868290,-0.00442994013428688
2022-11-11T23:59:21.957-07:00,0.2434756457805630,0.08729885518550870,0.1675897389650350,-0.01072937250137330,-0.004908353090286260,0.002163894474506380
2022-11-11T23:59:21.967-07:00,0.2185303419828420,0.08888343721628190,0.2018574327230450,-0.004306674003601070,-0.006025314331054690,0.009027719497680660
2022-11-11T23:59:21.978-07:00,0.2161848098039630,0.08778578788042070,0.228761225938797,0.006493270397186280,-0.004532396793365480,0.01217865943908690
2022-11-11T23:59:21.988-07:00,0.1833102107048040,0.07616854459047320,0.2512912750244140,0.01896888017654420,-0.007881969213485720,0.01379131898283960
2022-11-11T23:59:21.998-07:00,0.1606939435005190,0.06470033526420590,0.2691723108291630,0.02813684940338140,-0.009172797203063970,0.01140332221984860
2022-11-11T23:59:22.007-07:00,0.1267809867858890,0.05045109987258910,0.2771476805210110,0.03419750928878780,-0.02090045809745790,0.008939739316701890
2022-11-11T23:59:22.018-07:00,0.06781160831451420,0.02961060032248500,0.2894107401371000,0.03822630643844600,-0.03577554225921630,0.01045989990234380
2022-11-11T23:59:22.027-07:00,0.007656130939722060,0.008889340795576570,0.2887441515922550,0.03708148002624510,-0.04362314939498900,0.007620930671691900
2022-11-11T23:59:22.039-07:00,-0.029630521312356,0.006418460048735140,0.2755977213382720,0.02772736549377440,-0.05107748508453370,0.007126204669475560
2022-11-11T23:59:22.048-07:00,-0.05597158148884770,0.008977491408586500,0.2631447613239290,0.009224832057952880,-0.04746055603027340,0.00261688232421875
2022-11-11T23:59:22.057-07:00,-0.05107685923576360,0.009363817051053050,0.2336241453886030,-0.00506967306137085,-0.03997018933296200,0.002951737493276600
2022-11-11T23:59:22.067-07:00,-0.04125778377056120,0.02201063558459280,0.221492126584053,-0.01396524906158450,-0.0377972424030304,0.007017135620117190
2022-11-11T23:59:22.077-07:00,-0.02027899771928790,0.03560980036854740,0.2065717577934270,-0.01629602909088140,-0.03059417009353640,0.01368820667266850
2022-11-11T23:59:22.088-07:00,0.008039193227887150,0.04296411946415900,0.1882811784744260,-0.01230472326278690,-0.02937224507331850,0.01993179321289060
2022-11-11T23:59:22.098-07:00,0.0194876566529274,0.03793440759181980,0.1782466471195220,-0.008612692356109620,-0.03258642554283140,0.02148830890655520
2022-11-11T23:59:22.108-07:00,0.02898688614368440,0.03831097856163980,0.1643822342157360,-0.008153676986694340,-0.02846196293830870,0.01771401986479760
2022-11-11T23:59:22.118-07:00,0.04470233246684070,0.0347648449242115,0.1398020535707470,-0.01172471046447750,-0.02408522367477420,0.008876681327819820
2022-11-11T23:59:22.128-07:00,0.06371010839939120,0.02655458822846410,0.1147278621792790,-0.01420176029205320,-0.01987957954406740,0.0006966553628444670
2022-11-11T23:59:22.138-07:00,0.104156881570816,0.004668463952839380,0.1011340245604520,-0.01066374778747560,-0.01235091686248780,-0.002518411725759510
2022-11-11T23:59:22.148-07:00,0.1566712111234670,-0.02574137225747110,0.09592248499393460,-0.007168292999267580,-0.004790604114532470,-0.008101224899291990
2022-11-11T23:59:22.162-07:00,0.2185707986354830,-0.03997916728258130,0.08467409014701840,-0.006735146045684810,0.003662675619125370,-0.00958729162812233
2022-11-11T23:59:22.168-07:00,0.2743517756462100,-0.04457258805632590,0.07882365584373470,-0.01385390758514400,0.009802848100662230,-0.01065874472260480
2022-11-11T23:59:22.179-07:00,0.3002095520496370,-0.04977010935544970,0.07545822113752370,-0.01886254549026490,0.01246654987335210,-0.01415491476655010
2022-11-11T23:59:22.188-07:00,0.3111237287521360,-0.0437239371240139,0.07151434570550920,-0.02276122570037840,0.009741753339767460,-0.01244831457734110
2022-11-11T23:59:22.205-07:00,0.3062205910682680,-0.03578691557049750,0.05678999423980710,-0.02263325452804570,0.001805752515792850,-0.01023006811738010
2022-11-11T23:59:22.208-07:00,0.2984111309051510,-0.04090817645192150,0.04567715525627140,-0.01310461759567260,-0.002079665660858150,-0.00888538733124733
2022-11-11T23:59:22.218-07:00,0.288884699344635,-0.05734966695308690,0.05083037167787550,0.003223955631256100,-0.005805134773254400,-0.009627107530832290
2022-11-11T23:59:22.228-07:00,0.2829194664955140,-0.07670232653617860,0.04772406071424480,0.01809084415435790,-0.0009167790412902830,-0.0127938948571682
2022-11-11T23:59:22.238-07:00,0.2769788801670070,-0.09449636936187740,0.02530849911272530,0.02324223518371580,-0.00663447380065918,-0.02233481779694560
2022-11-11T23:59:22.251-07:00,0.259450227022171,-0.09918273240327840,0.01774725317955020,0.01394420862197880,-0.009986817836761480,-0.03331542387604710
2022-11-11T23:59:22.258-07:00,0.2249562591314320,-0.1020763590931890,0.01248031947761770,0.003259658813476560,-0.005387425422668460,-0.03959810361266140
2022-11-11T23:59:22.268-07:00,0.1927349418401720,-0.1024721041321750,0.0001544114202260970,-0.001269161701202390,-0.008702903985977170,-0.0416409932076931
2022-11-11T23:59:22.279-07:00,0.1733287274837490,-0.1018297150731090,-0.009335230104625230,0.004597306251525880,-0.01471465826034550,-0.03132724389433860
2022-11-11T23:59:22.288-07:00,0.169623464345932,-0.09012246131896970,-0.01923313550651070,0.01069843769073490,-0.01700484752655030,-0.01865505799651150
2022-11-11T23:59:22.298-07:00,0.1553467959165570,-0.07600343972444530,-0.03579719737172130,0.008373022079467770,-0.008315950632095340,-0.01017236709594730
2022-11-11T23:59:22.310-07:00,0.1350585669279100,-0.05313009023666380,-0.05444864556193350,0.0002103447914123540,0.00041159987449646,-0.008733037859201430
2022-11-11T23:59:22.319-07:00,0.1154209077358250,-0.02857464551925660,-0.07173202931880950,-0.005985438823699950,0.003911972045898440,-0.008200168609619140
2022-11-11T23:59:22.328-07:00,0.09343437850475310,-0.01014050934463740,-0.0860569104552269,-0.002691447734832760,-0.001362025737762450,-0.008666288107633590
2022-11-11T23:59:22.338-07:00,0.06678519397974010,-0.001736904610879720,-0.09735004603862760,0.004396677017211910,-0.003893792629241940,-0.008791685104370120
2022-11-11T23:59:22.349-07:00,0.05286990851163860,-0.003455975092947480,-0.1041381731629370,0.01444214582443240,-0.00592377781867981,-0.01122773066163060
2022-11-11T23:59:22.359-07:00,0.05687180906534200,0.003131387289613490,-0.1182712987065320,0.01880824565887450,-0.006278008222579960,-0.01336109638214110
2022-11-11T23:59:22.369-07:00,0.06724242866039280,0.006762074772268530,-0.1314169317483900,0.01627600193023680,-0.002851694822311400,-0.0147864855825901
2022-11-11T23:59:22.379-07:00,0.09278590977191930,0.0009821827989071610,-0.1444650888442990,0.01478469371795650,0.003197401762008670,-0.01911437883973120
2022-11-11T23:59:22.389-07:00,0.1287803947925570,-0.008649138733744620,-0.1555379778146740,0.01449322700500490,0.01228126883506780,-0.02233994007110600
2022-11-11T23:59:22.399-07:00,0.1509479135274890,-0.01850220188498500,-0.1608959883451460,0.01525509357452390,0.02250516414642330,-0.02604591846466060
2022-11-11T23:59:22.410-07:00,0.1678483337163930,-0.03287261724472050,-0.1612523198127750,0.01388776302337650,0.02589893341064450,-0.03113389015197750
2022-11-11T23:59:22.419-07:00,0.1764547079801560,-0.03828372806310650,-0.1605553776025770,0.01490825414657590,0.02465644478797910,-0.02820861712098120
2022-11-11T23:59:22.429-07:00,0.1739524006843570,-0.03701393306255340,-0.1555382460355760,0.01071023941040040,0.01817911863327030,-0.02753150463104250
2022-11-11T23:59:22.461-07:00,0.1693415343761440,-0.03019104897975920,-0.153640478849411,0.007878243923187260,0.01751813292503360,-0.02555561438202860
2022-11-11T23:59:22.464-07:00,0.1503800898790360,-0.02405299618840220,-0.1527728140354160,0.007498204708099370,0.02092379331588750,-0.02548385038971900
2022-11-11T23:59:22.466-07:00,0.1288022249937060,-0.02247733809053900,-0.1416786164045330,0.01035106182098390,0.02734234929084780,-0.02685606479644780
2022-11-11T23:59:22.470-07:00,0.1060274094343190,-0.02390106394886970,-0.1315982937812810,0.01495414972305300,0.03202840685844420,-0.02375519275665280
2022-11-11T23:59:22.479-07:00,0.08988891541957860,-0.02134123258292680,-0.1235536858439450,0.01320445537567140,0.03230422735214230,-0.02515506371855740
2022-11-11T23:59:22.491-07:00,0.08751417696475980,-0.004271435085684060,-0.1116871684789660,0.005440771579742430,0.03304052352905270,-0.02629530988633630
2022-11-11T23:59:22.500-07:00,0.09040877223014830,0.00640411302447319,-0.09968670457601550,0.0009963512420654300,0.03571689128875730,-0.0247112549841404
2022-11-11T23:59:22.509-07:00,0.094207763671875,0.01360689755529170,-0.08415647596120830,0.0008873343467712400,0.0336824357509613,-0.0228813923895359
2022-11-11T23:59:22.520-07:00,0.08483763039112090,0.01372787170112130,-0.07031895220279690,0.002498030662536620,0.03426241874694820,-0.02158176898956300
2022-11-11T23:59:22.529-07:00,0.08155688643455510,0.01430338062345980,-0.06203865259885790,0.004496395587921140,0.03160727024078370,-0.02036428824067120
2022-11-11T23:59:22.539-07:00,0.06007129698991780,0.01028600241988900,-0.04306522756814960,-0.0004330873489379880,0.03225073218345640,-0.01926637068390850
2022-11-11T23:59:22.549-07:00,0.04147817194461820,0.01504107564687730,-0.03314389288425450,-0.005116641521453860,0.03390282392501830,-0.01904582977294920
2022-11-11T23:59:22.559-07:00,0.02611459791660310,0.02224020101130010,-0.0202800240367651,-0.008637547492980960,0.02574700117111210,-0.01524460315704350
2022-11-11T23:59:22.569-07:00,0.009535089135169980,0.02124684117734430,-0.003791594412177800,-0.002685785293579100,0.01756104826927190,-0.009875891730189320
2022-11-11T23:59:22.579-07:00,-0.01788841187953950,0.02050714753568170,0.009068810380995270,0.00418543815612793,0.01474842429161070,-0.006876111030578610
2022-11-11T23:59:22.589-07:00,-0.0146287027746439,0.01769911125302320,0.01093728374689820,0.00728762149810791,0.01738926768302920,-0.00610637478530407
2022-11-11T23:59:22.600-07:00,-0.01116226520389320,0.01282359566539530,0.01084860134869810,0.008398354053497310,0.02329543232917790,-0.008201122283935550
2022-11-11T23:59:22.610-07:00,0.01584378629922870,0.008587039075791840,0.00790394376963377,0.01075959205627440,0.02845630049705510,-0.01060414686799050
2022-11-11T23:59:22.620-07:00,0.03976000472903250,0.009194007143378260,0.00596116716042161,0.01195770502090450,0.02817702293396000,-0.009410975500941280
2022-11-11T23:59:22.630-07:00,0.05355225130915640,-0.003117254236713050,0.004217063542455440,0.01652616262435910,0.02244022488594060,-0.007219312712550160
2022-11-11T23:59:22.640-07:00,0.06401278078556060,-0.007373951375484470,0.008723930455744270,0.01942133903503420,0.01397845149040220,-0.003066897392272950
2022-11-11T23:59:22.650-07:00,0.06879767775535580,-0.004684690851718190,0.002021021209657190,0.01729559898376470,0.008353084325790410,0.0003666896373033520
2022-11-11T23:59:22.663-07:00,0.06234025210142140,-0.01378464605659250,-0.003362026764079930,0.01390320062637330,0.004617869853973390,0.003118516877293590
2022-11-11T23:59:22.670-07:00,0.05393078923225400,-0.01543767005205150,-0.004723700694739820,0.006355226039886480,0.005712002515792850,0.004939435049891470
2022-11-11T23:59:22.680-07:00,0.04943899437785150,-0.01204523537307980,-0.008929365314543250,0.0008363127708435060,0.007055342197418210,0.005943655967712400
2022-11-11T23:59:22.691-07:00,0.03999835625290870,-0.01553637348115440,-0.009402608498930930,-0.002983272075653080,0.003703564405441280,0.005910634994506840
2022-11-11T23:59:22.700-07:00,0.02937234379351140,-0.0221567265689373,0.0001251166686415670,-0.003464698791503910,-0.000376969575881958,0.007818697020411490
2022-11-11T23:59:22.710-07:00,0.03157717734575270,-0.02282890677452090,0.002717437688261270,-0.002004921436309810,-0.0005679130554199220,0.009494662284851070
2022-11-11T23:59:22.722-07:00,0.04094231128692630,-0.02259601466357710,0.00454756198450923,0.001185059547424320,-0.0004119277000427250,0.01082730293273930
2022-11-11T23:59:22.730-07:00,0.04812991619110110,-0.03071253001689910,0.005279930774122480,0.005165398120880130,0.001023143529891970,0.008136751130223270
2022-11-11T23:59:22.740-07:00,0.06073395907878880,-0.03816362097859380,0.007608332205563780,0.009218275547027590,0.004009485244750980,0.009775638580322270
2022-11-11T23:59:22.750-07:00,0.08207573741674420,-0.04555682092905050,0.003076431807130580,0.008790194988250730,0.0076446533203125,0.008306980133056640
2022-11-11T23:59:22.760-07:00,0.1040611937642100,-0.05322353169322010,-0.001998221967369320,0.00946575403213501,0.005945026874542240,0.006865141913294790
2022-11-11T23:59:22.770-07:00,0.1123604103922840,-0.06307402998209,0.001333126332610850,0.01156449317932130,0.004499077796936040,0.008156536146998410
2022-11-11T23:59:22.780-07:00,0.1096960455179210,-0.07343998551368710,0.006650393828749660,0.01244503259658810,-0.0004664361476898190,0.009486911818385120
2022-11-11T23:59:22.802-07:00,0.09125073254108430,-0.0785340815782547,0.007237620651721950,0.01237988471984860,-0.00366741418838501,0.01326501183211800
2022-11-11T23:59:22.805-07:00,0.06083982437849050,-0.08486467599868770,0.01146752014756200,0.01487314701080320,-0.00495794415473938,0.01541399955749510
2022-11-11T23:59:22.811-07:00,-0.005754116922616960,-0.1168399229645730,0.03253045678138730,0.01417100429534910,-0.003010660409927370,0.01613306626677510
2022-11-11T23:59:22.823-07:00,-0.1062743365764620,-0.1487618982791900,0.08303810656070710,0.01457393169403080,0.01012063026428220,0.02836322598159310
2022-11-11T23:59:22.831-07:00,-0.220765233039856,-0.195522740483284,0.1748037189245220,0.01139801740646360,0.02857774496078490,0.03643941879272460
2022-11-11T23:59:22.846-07:00,-0.2790679931640630,-0.1992900222539900,0.269707590341568,-0.004286289215087890,0.05699053406715390,0.0426253043115139
2022-11-11T23:59:22.850-07:00,-0.2736130356788640,-0.1700184196233750,0.3607842624187470,-0.02623391151428220,0.08205080032348630,0.02451395988464360
2022-11-11T23:59:22.861-07:00,-0.2292567789554600,-0.1392263919115070,0.4422782957553860,-0.03238976001739500,0.1105376482009890,0.0100170373916626
2022-11-11T23:59:22.877-07:00,-0.1387503147125240,-0.1257159113883970,0.591704249382019,-0.02223682403564450,0.139512300491333,0.001630421727895740
2022-11-11T23:59:22.881-07:00,-0.1069454103708270,-0.1616130322217940,0.7931415438652040,-0.006963133811950680,0.1768229007720950,0.01222061365842820
2022-11-11T23:59:22.895-07:00,-0.01202875841408970,-0.116265781223774,0.9331551194190980,-0.0008956789970397950,0.2298779189586640,0.0284266471862793
2022-11-11T23:59:22.903-07:00,0.07693879306316380,-0.01670550182461740,1.014057397842410,-0.02734196186065670,0.2725349068641660,-0.01986503973603250
2022-11-11T23:59:22.911-07:00,0.02600770816206930,0.0157373920083046,1.09052312374115,-0.04935860633850100,0.3264860212802890,-0.02933692932128910
2022-11-11T23:59:22.921-07:00,-0.2597606480121610,-0.01118822954595090,1.292399525642400,-0.04391574859619140,0.3878623247146610,0.02015817165374760
2022-11-11T23:59:22.931-07:00,-0.5877825021743770,-0.02778558433055880,1.571182370185850,-0.01142138242721560,0.4545359313488010,0.01914525032043460
2022-11-11T23:59:22.941-07:00,-0.6237947940826420,0.1012699007987980,1.771556496620180,0.001008749008178710,0.5246011018753050,0.04427850246429440
2022-11-11T23:59:22.951-07:00,-0.4577579498291020,0.3389008343219760,2.0311279296875,-0.0122944712638855,0.6125578880310060,0.112883448600769
2022-11-11T23:59:22.961-07:00,-0.2651265859603880,0.5361464619636540,2.440216064453130,-0.02220892906188970,0.7691262364387510,0.1020125150680540
2022-11-11T23:59:22.971-07:00,-0.0002083834260702130,0.6941075921058660,2.953278303146360,0.01119327545166020,0.9429218769073490,0.1096467971801760
2022-11-11T23:59:22.981-07:00,0.1784384548664090,0.7941775918006900,3.573463439941410,0.07012921571731570,1.140448093414310,0.2184348106384280
2022-11-11T23:59:22.991-07:00,-0.05571705102920530,0.9481354355812070,4.36820125579834,0.05882549285888670,1.458093523979190,0.2584705352783200
2022-11-11T23:59:23.001-07:00,-0.6783348321914670,1.075366377830510,5.36991548538208,-0.06026190519332890,1.889242053031920,0.2676634788513180
2022-11-11T23:59:23.010-07:00,-1.556612849235540,0.8068382143974300,6.480779647827150,-0.2570350766181950,2.325767517089840,0.2638230323791500
2022-11-11T23:59:23.021-07:00,-1.735829949378970,0.2264981269836430,7.624841690063480,-0.4824323654174810,2.720103740692140,0.3642266988754270
2022-11-11T23:59:23.031-07:00,-1.585196495056150,-0.6096583008766170,8.821348190307620,-0.6559805870056150,2.927934169769290,0.3735870122909550
2022-11-11T23:59:23.041-07:00,-1.486116290092470,-1.650208473205570,9.848043441772460,-0.7475464344024660,3.228886604309080,0.4091179370880130
2022-11-11T23:59:23.051-07:00,-0.7401690483093260,-2.599089860916140,10.62964820861820,-0.8431283235549930,3.505936622619630,0.5305801630020140
2022-11-11T23:59:23.061-07:00,0.3930087387561800,-3.249697208404540,11.13638305664060,-1.039534568786620,3.374539852142330,0.6561135053634640
2022-11-11T23:59:23.071-07:00,1.899771213531490,-3.604310035705570,11.38942718505860,-1.34714150428772,3.151345014572140,0.7231800556182860
2022-11-11T23:59:23.081-07:00,3.50764012336731,-3.779268503189090,11.50006866455080,-1.699827194213870,2.958436965942380,0.7523856163024900
2022-11-11T23:59:23.091-07:00,4.961539268493650,-3.865020513534550,11.31032085418700,-2.105808734893800,2.723785877227780,0.6476689577102660
2022-11-11T23:59:23.101-07:00,6.055521488189700,-3.815722703933720,10.95181274414060,-2.527313947677610,2.196085453033450,0.5181869268417360
2022-11-11T23:59:23.111-07:00,6.664596080780030,-3.707709074020390,10.25104999542240,-2.843087196350100,1.404253959655760,0.4962904453277590
2022-11-11T23:59:23.121-07:00,6.838854312896730,-3.091025829315190,8.839341163635250,-3.109094381332400,0.4405741691589360,0.6803900003433230
2022-11-11T23:59:23.131-07:00,5.884051322937010,-1.185978889465330,7.938344955444340,-3.580814361572270,-0.7519086003303530,1.039357304573060
2022-11-11T23:59:23.141-07:00,4.018561840057370,0.1827595382928850,8.23863410949707,-4.093314170837400,-1.945065975189210,1.070358753204350
2022-11-11T23:59:23.151-07:00,1.546411275863650,0.7735748887062070,7.186949253082280,-3.980604887008670,-2.92140793800354,0.7017934322357180
2022-11-11T23:59:23.161-07:00,-0.4261355400085450,1.090267777442930,5.425620555877690,-3.184279680252080,-3.313913345336910,0.5383447408676150
2022-11-11T23:59:23.171-07:00,-1.216107964515690,1.225156545639040,3.966809511184690,-2.564125061035160,-3.127443552017210,0.7130224108695980
2022-11-11T23:59:23.181-07:00,-1.054197669029240,1.71918773651123,2.609719276428220,-2.44365406036377,-2.880744457244870,0.7546513676643370
2022-11-11T23:59:23.191-07:00,-0.5766367316246030,1.971144080162050,1.485809683799740,-2.412974119186400,-2.535238265991210,0.5265219807624820
2022-11-11T23:59:23.201-07:00,-0.1285313665866850,1.680541753768920,0.8464622497558590,-2.068891286849980,-2.165547847747800,0.28952956199646
2022-11-11T23:59:23.211-07:00,0.03759928047657010,1.278351187705990,0.5564925074577330,-1.570280790328980,-1.912144184112550,0.173628643155098
2022-11-11T23:59:23.221-07:00,-0.002190940082073210,1.10621452331543,0.29738450050354,-1.180163741111760,-1.710531711578370,0.1276424527168270
2022-11-11T23:59:23.232-07:00,-0.2991302013397220,0.9511977434158330,-0.3134687542915340,-0.8868404030799870,-1.534075975418090,0.160719707608223
2022-11-11T23:59:23.242-07:00,-0.6531873941421510,0.6656743884086610,-0.8334856033325200,-0.6424666047096250,-1.2479168176651,0.2635655999183660
2022-11-11T23:59:23.252-07:00,-0.9149491786956790,0.2980293035507200,-0.9096698760986330,-0.4276428818702700,-0.8594986796379090,0.3207945227622990
2022-11-11T23:59:23.262-07:00,-1.032456874847410,-0.04932822659611700,-0.7561540007591250,-0.22150057554245,-0.4918319582939150,0.2889342308044430
2022-11-11T23:59:23.272-07:00,-1.012206673622130,-0.2116649448871610,-0.6917622685432430,-0.07452565431594850,-0.2091466188430790,0.1859181374311450
2022-11-11T23:59:23.282-07:00,-0.5166394710540770,-0.1575969755649570,-0.6331977844238280,-0.02627474069595340,0.04654109477996830,0.08661802113056180
2022-11-11T23:59:23.292-07:00,-0.04770899191498760,-0.02027400396764280,-0.5682570934295650,-0.01409119367599490,0.2544023394584660,0.009537577629089360
2022-11-11T23:59:23.303-07:00,0.2643514275550840,0.09458626806735990,-0.5169981718063350,-0.00149160623550415,0.3852642774581910,-0.07727889716625210
2022-11-11T23:59:23.312-07:00,0.3483344912528990,0.1479355096817020,-0.4580376446247100,0.03050869703292850,0.3426069021224980,-0.1372461169958120
2022-11-11T23:59:23.322-07:00,0.2071765661239620,0.1496601700782780,-0.3911560773849490,0.08156669139862060,0.1842371225357060,-0.1527143120765690
2022-11-11T23:59:23.333-07:00,-0.01368497870862480,0.07944406569004060,-0.3237123191356660,0.1426051259040830,0.03498172760009770,-0.1382849663496020
2022-11-11T23:59:23.342-07:00,-0.2442766726017000,-0.05434378981590270,-0.2763978242874150,0.2015973925590520,-0.03672492504119870,-0.1081171631813050
2022-11-11T23:59:23.352-07:00,-0.3409321308135990,-0.1772012710571290,-0.2891114950180050,0.228950023651123,-0.0001674890518188480,-0.08557102084159850
2022-11-11T23:59:23.362-07:00,-0.2720502614974980,-0.2203729450702670,-0.3313819766044620,0.2034390568733220,0.09867584705352780,-0.09104794263839720
2022-11-11T23:59:23.372-07:00,-0.1548269838094710,-0.1936409324407580,-0.3530755639076230,0.124737024307251,0.1803975701332090,-0.09045439958572390
2022-11-11T23:59:23.382-07:00,0.01976359263062480,-0.1294437050819400,-0.3329718708992000,0.04195523262023930,0.2037076950073240,-0.06861591339111330
2022-11-11T23:59:23.392-07:00,0.1431451737880710,-0.09518453478813170,-0.2568393051624300,0.002587378025054930,0.1424044370651250,-0.00551217794418335
2022-11-11T23:59:23.402-07:00,0.1529232412576680,-0.1256827861070630,-0.1136017143726350,0.008367478847503660,0.07372456789016720,0.05154366791248320
2022-11-11T23:59:23.412-07:00,0.1393275409936910,-0.1735690832138060,-0.04554622992873190,0.01846235990524290,0.05006659030914310,0.07107585668563840
2022-11-11T23:59:23.422-07:00,0.2109298259019850,-0.1971676200628280,-0.07500211894512180,0.003887474536895750,0.0453142523765564,0.05045366287231450
2022-11-11T23:59:23.432-07:00,0.2551604211330410,-0.1966725438833240,-0.1275164633989330,-0.01849812269210820,0.04519617557525640,0.02564972639083860
2022-11-11T23:59:23.442-07:00,0.1714556217193600,-0.1792173385620120,-0.1929402053356170,-0.02746421098709110,0.06124180555343630,0.02345724403858190
2022-11-11T23:59:23.452-07:00,0.1607387959957120,-0.1952194720506670,-0.2420566231012340,-0.01740819215774540,0.06220930814743040,0.01515538990497590
2022-11-11T23:59:23.462-07:00,0.06453362107276920,-0.2408723831176760,-0.2462497800588610,0.004020512104034420,0.01210832595825200,0.02654129266738890
2022-11-11T23:59:23.472-07:00,-0.01603817939758300,-0.3093569278717040,-0.2535170018672940,0.01553642749786380,-0.01119458675384520,0.01877152919769290
2022-11-11T23:59:23.482-07:00,0.007294373586773870,-0.3642615079879760,-0.2706983983516690,0.01428723335266110,-0.02176231145858770,0.007694453001022340
2022-11-11T23:59:23.492-07:00,0.02879060991108420,-0.3777541518211370,-0.2664927542209630,0.0006996989250183110,-0.0131230354309082,0.008819594979286190
2022-11-11T23:59:23.502-07:00,0.0569465160369873,-0.3624337017536160,-0.2494684755802160,-0.01555269956588750,0.02379739284515380,0.0004927664995193480
2022-11-11T23:59:23.512-07:00,0.1027222573757170,-0.3473732471466060,-0.2264150828123090,-0.02423852682113650,0.03745025396347050,-0.02046599984169010
2022-11-11T23:59:23.522-07:00,0.1130052953958510,-0.3535400629043580,-0.1842402070760730,-0.01368701457977300,0.02095472812652590,-0.02870357036590580
2022-11-11T23:59:23.532-07:00,0.1603941172361370,-0.3596685528755190,-0.1500939428806310,0.003637254238128660,0.0004832744598388670,-0.03554022312164310
2022-11-11T23:59:23.543-07:00,0.1732189208269120,-0.3379670679569240,-0.1238905712962150,0.01505255699157720,-0.02046394348144530,-0.03243130445480350
2022-11-11T23:59:23.553-07:00,0.1805071979761120,-0.2836628258228300,-0.1452081054449080,0.01369577646255490,-0.0182986855506897,-0.01927313208580020
2022-11-11T23:59:23.563-07:00,0.1650281548500060,-0.2315453290939330,-0.1644917875528340,0.009977400302886960,-0.009534537792205810,-0.02225534617900850
2022-11-11T23:59:23.573-07:00,0.09463973343372350,-0.2003690302371980,-0.1801956444978710,0.01128149032592770,-0.0125383734703064,-0.02559338510036470
2022-11-11T23:59:23.583-07:00,0.03886747732758520,-0.1810128390789030,-0.1839664280414580,0.0155864953994751,-0.02099043130874630,-0.02245336771011350
2022-11-11T23:59:23.593-07:00,0.03076214715838430,-0.1720140278339390,-0.1955226808786390,0.01535052061080930,-0.02807623147964480,-0.02635759115219120
2022-11-11T23:59:23.609-07:00,0.06359140574932100,-0.1498687118291860,-0.2258899062871930,0.005045294761657720,-0.004943370819091800,-0.02330541610717770
2022-11-11T23:59:23.618-07:00,0.09218896180391310,-0.119167260825634,-0.2212879657745360,-0.004778265953063970,0.03074252605438230,-0.0211845338344574
2022-11-11T23:59:23.627-07:00,0.08468210697174070,-0.1210488528013230,-0.2007046490907670,-0.006442606449127200,0.05361992120742800,-0.02305851876735690
2022-11-11T23:59:23.636-07:00,0.03857932612299920,-0.1477502286434170,-0.1570282876491550,0.0008147358894348150,0.04008269309997560,-0.01424883306026460
2022-11-11T23:59:23.647-07:00,-0.01814507320523260,-0.2016407698392870,-0.0899195522069931,0.01442438364028930,0.01533246040344240,-0.01432244479656220
2022-11-11T23:59:23.653-07:00,-0.01870247349143030,-0.2432771623134610,-0.04863576591014860,0.02407318353652950,0.006474971771240230,-0.01214900612831120
2022-11-11T23:59:23.663-07:00,0.0580349788069725,-0.2527058720588680,-0.01443465147167440,0.01735204458236690,0.006977081298828130,-0.01390489935874940
2022-11-11T23:59:23.678-07:00,0.1065673604607580,-0.2259738743305210,0.003385624382644890,-0.001722335815429690,0.01039552688598630,-0.006665170192718510
2022-11-11T23:59:23.690-07:00,0.14015232026577,-0.192261278629303,-0.025391960516572,-0.01789093017578130,0.02437359094619750,-0.006530523300170900
2022-11-11T23:59:23.693-07:00,0.1779002249240880,-0.159550204873085,-0.06320645660161970,-0.02058428525924680,0.0202794075012207,-0.01477086544036870
2022-11-11T23:59:23.703-07:00,0.1341414749622350,-0.1276920437812810,-0.07512170076370240,-0.01158273220062260,-0.003200531005859380,-0.006981015205383300
2022-11-11T23:59:23.713-07:00,0.06805006414651870,-0.1303677260875700,-0.0823465883731842,0.001995265483856200,-0.0202069878578186,-0.01243418455123900
2022-11-11T23:59:23.724-07:00,0.05478209629654880,-0.1367115378379820,-0.1123140752315520,0.009949207305908200,-0.04076468944549560,-0.01378273963928220
2022-11-11T23:59:23.733-07:00,0.07960115373134610,-0.1215837076306340,-0.1213136985898020,0.006642580032348630,-0.04240578413009640,-0.00657634437084198
2022-11-11T23:59:23.743-07:00,0.1410097926855090,-0.1009523347020150,-0.1361642777919770,-0.004712283611297610,-0.01502847671508790,-0.02124226093292240
2022-11-11T23:59:23.753-07:00,0.1534504890441900,-0.09187574684619900,-0.1513978242874150,-0.01996713876724240,0.008095324039459230,-0.04396972060203550
2022-11-11T23:59:23.763-07:00,0.1346229761838910,-0.09558044373989110,-0.1475958973169330,-0.03254491090774540,0.008751332759857180,-0.05184760689735410
2022-11-11T23:59:23.773-07:00,0.03995318338274960,-0.1124640852212910,-0.1199466958642010,-0.03630304336547850,-0.01150608062744140,-0.04668062925338750
2022-11-11T23:59:23.783-07:00,-0.0568581148982048,-0.1427692025899890,-0.1086295917630200,-0.03511244058609010,-0.03325784206390380,-0.02170400321483610
2022-11-11T23:59:23.793-07:00,-0.07256677001714710,-0.1608661711215970,-0.1107531934976580,-0.03265368938446050,-0.04323631525039670,0.006867766380310060
2022-11-11T23:59:23.804-07:00,-0.02830946072936060,-0.1499584913253780,-0.1021466627717020,-0.03609693050384520,-0.03005081415176390,0.01574376225471500
2022-11-11T23:59:23.813-07:00,0.04687876254320150,-0.1449373662471770,-0.1065187752246860,-0.04531443119049070,9.20891761779785E-05,0.01359474658966060
2022-11-11T23:59:23.823-07:00,0.09915181994438170,-0.1319520622491840,-0.1252546459436420,-0.05588912963867190,0.009477317333221440,0.019943967461586
2022-11-11T23:59:23.833-07:00,0.121821716427803,-0.1214320436120030,-0.1650412082672120,-0.06897670030593870,-0.007811486721038820,0.02551299333572390
2022-11-11T23:59:23.844-07:00,0.1226346790790560,-0.1378508657217030,-0.2133626639842990,-0.07508653402328490,-0.0415189266204834,0.02511030435562130
2022-11-11T23:59:23.854-07:00,0.09898927807807920,-0.1651213765144350,-0.2762481570243840,-0.07610613107681270,-0.07075762748718260,0.01972669363021850
2022-11-11T23:59:23.864-07:00,0.08985965698957440,-0.1883318424224850,-0.325571745634079,-0.07591456174850460,-0.07117724418640140,0.006703704595565800
2022-11-11T23:59:23.874-07:00,0.1042819991707800,-0.2087881118059160,-0.3661159873008730,-0.07869952917099000,-0.06955671310424810,-0.01762795448303220
2022-11-11T23:59:23.884-07:00,0.08874356001615520,-0.2194349318742750,-0.4103835821151730,-0.0866386890411377,-0.07870101928710940,-0.02953276038169860
2022-11-11T23:59:23.894-07:00,0.05809430778026580,-0.2248491495847700,-0.4767900407314300,-0.09135466814041140,-0.08960586786270140,-0.02911683917045590
2022-11-11T23:59:23.905-07:00,0.04392026364803310,-0.2349346280097960,-0.538095235824585,-0.0963892936706543,-0.1044465303421020,-0.02389943599700930
2022-11-11T23:59:23.914-07:00,0.02126901224255560,-0.240509957075119,-0.5812650322914120,-0.09553313255310060,-0.1342156529426580,-0.0007481873035430910
2022-11-11T23:59:23.924-07:00,0.00736364908516407,-0.2584187388420110,-0.631350040435791,-0.0892646312713623,-0.159936785697937,0.02126669883728030
2022-11-11T23:59:23.934-07:00,0.03938443213701250,-0.2844474017620090,-0.7026649713516240,-0.09143921732902530,-0.1779907941818240,0.03533253073692320
2022-11-11T23:59:23.950-07:00,0.09323574602603910,-0.304990291595459,-0.7834511995315550,-0.09773004055023190,-0.1897751688957210,0.04371309280395510
2022-11-11T23:59:23.956-07:00,0.1686045378446580,-0.338346391916275,-0.8744045495986940,-0.1059878766536710,-0.1895257830619810,0.03199514746665960
2022-11-11T23:59:23.964-07:00,0.2944604158401490,-0.3769347667694090,-0.9832229018211370,-0.1188225746154790,-0.1889583468437200,0.01302611827850340
2022-11-11T23:59:23.974-07:00,0.4145133197307590,-0.3936692774295810,-1.101970314979550,-0.1288822889328000,-0.1771062612533570,0.000207066535949707
2022-11-11T23:59:23.984-07:00,0.531889021396637,-0.3998667001724240,-1.207035660743710,-0.1397457122802730,-0.1572791337966920,-0.02373915910720830
2022-11-11T23:59:24.003-07:00,0.5451856255531310,-0.4020755290985110,-1.281434535980230,-0.1440584063529970,-0.1613254547119140,-0.03354102373123170
2022-11-11T23:59:24.007-07:00,0.3978340327739720,-0.4035879969596860,-1.342056632041930,-0.1442328989505770,-0.1754079461097720,-0.01850888133049010
2022-11-11T23:59:24.014-07:00,0.1837268024683000,-0.4011152684688570,-1.413220047950750,-0.1409998536109920,-0.1982444524765020,-0.0004909932613372800
2022-11-11T23:59:24.024-07:00,-0.04984631016850470,-0.399130642414093,-1.491630434989930,-0.137230783700943,-0.2317660450935360,0.02240422368049620
2022-11-11T23:59:24.034-07:00,-0.2633902728557590,-0.3892244696617130,-1.558693885803220,-0.1351393759250640,-0.2637882828712460,0.05043163895607000
2022-11-11T23:59:24.044-07:00,-0.3697495460510250,-0.376139760017395,-1.629671692848210,-0.1364001631736760,-0.2911237478256230,0.07294905185699460
2022-11-11T23:59:24.054-07:00,-0.3583008944988250,-0.3639605939388280,-1.721323370933530,-0.1366176307201390,-0.3096432685852050,0.08182528614997860
2022-11-11T23:59:24.064-07:00,-0.2502214014530180,-0.3611093163490300,-1.795476078987120,-0.1423977017402650,-0.2970393896102910,0.065897136926651
2022-11-11T23:59:24.074-07:00,-0.1056711226701740,-0.3631418347358700,-1.877555966377260,-0.1499877274036410,-0.2549230456352230,0.05431732535362240
2022-11-11T23:59:24.084-07:00,0.03649000823497770,-0.3471053540706640,-1.986283659935000,-0.158899188041687,-0.19391268491745,0.04711887240409850
2022-11-11T23:59:24.094-07:00,0.1654703617095950,-0.3216186165809630,-2.127631902694700,-0.1718929708004000,-0.1400895714759830,0.04080751538276670
2022-11-11T23:59:24.104-07:00,0.2652072310447690,-0.2977531254291530,-2.271286964416500,-0.1803569793701170,-0.1262161731719970,0.03200984001159670
2022-11-11T23:59:24.114-07:00,0.2301560193300250,-0.2992897629737850,-2.379154682159420,-0.1762840449810030,-0.1571022272109990,0.02601039409637450
2022-11-11T23:59:24.124-07:00,0.008204076439142230,-0.3220541179180150,-2.443764209747310,-0.1595142036676410,-0.2148732542991640,0.02330997586250310
2022-11-11T23:59:24.135-07:00,-0.3377994000911710,-0.3537555932998660,-2.50947380065918,-0.1340439766645430,-0.2750943303108220,0.02717599272727970
2022-11-11T23:59:24.145-07:00,-0.6448342800140380,-0.3951069116592410,-2.576945781707760,-0.1072336137294770,-0.3352301716804500,0.02624070644378660
2022-11-11T23:59:24.155-07:00,-0.7544172406196590,-0.4224277436733250,-2.620101690292360,-0.0913102924823761,-0.3707832098007200,0.04047572612762450
2022-11-11T23:59:24.166-07:00,-0.6994081735610960,-0.4220204055309300,-2.691054821014400,-0.0816434770822525,-0.346577525138855,0.07461753487586980
2022-11-11T23:59:24.175-07:00,-0.3612517118453980,-0.4007425606250760,-2.77850866317749,-0.08745796233415600,-0.2566033005714420,0.0882585346698761
2022-11-11T23:59:24.185-07:00,0.07928234338760380,-0.3868294656276700,-2.846561670303350,-0.1009482145309450,-0.1328038573265080,0.09379401803016660
2022-11-11T23:59:24.195-07:00,0.431482195854187,-0.3649976551532750,-2.927142143249510,-0.1152578890323640,0.02218037843704220,0.08573296666145330
2022-11-11T23:59:24.205-07:00,0.6348080635070800,-0.3349277675151830,-3.012222528457640,-0.1313574314117430,0.1372057795524600,0.06975796818733220
2022-11-11T23:59:24.215-07:00,0.5471727252006530,-0.3427548110485080,-3.025869846343990,-0.1360121071338650,0.1328308582305910,0.05181685090065000
2022-11-11T23:59:24.225-07:00,0.1553845405578610,-0.411480724811554,-2.974857807159420,-0.111223541200161,0.04885268211364750,0.03543415665626530
2022-11-11T23:59:24.236-07:00,-0.4340478479862210,-0.5044618248939510,-2.89307689666748,-0.06937059760093690,-0.04376256465911870,0.04529321193695070
2022-11-11T23:59:24.245-07:00,-0.9937757253646850,-0.5809029340744020,-2.788780689239500,-0.03363333642482760,-0.1031749248504640,0.04634597897529600
2022-11-11T23:59:24.255-07:00,-1.265168905258180,-0.6269060969352720,-2.698182582855230,-0.02305750548839570,-0.1227702498435970,0.04875829815864560
2022-11-11T23:59:24.265-07:00,-1.067492842674260,-0.6070563793182370,-2.666548013687130,-0.03354956209659580,-0.0871356725692749,0.05312016606330870
2022-11-11T23:59:24.278-07:00,-0.6173220276832580,-0.5401042699813840,-2.69674277305603,-0.04897609353065490,0.01768982410430910,0.04004108905792240
2022-11-11T23:59:24.286-07:00,-0.04732030257582660,-0.500967264175415,-2.759187936782840,-0.06102967262268070,0.1812947392463680,0.006342530250549320
2022-11-11T23:59:24.295-07:00,0.4790726602077480,-0.4802603721618650,-2.807756423950200,-0.0635504424571991,0.2866175770759580,-0.002670168876647950
2022-11-11T23:59:24.305-07:00,0.644862949848175,-0.4763047397136690,-2.813634872436520,-0.06210264563560490,0.2977836132049560,-0.01290765404701230
2022-11-11T23:59:24.315-07:00,0.4466302394866940,-0.4945799112319950,-2.810214757919310,-0.05964896082878110,0.2549629211425780,0.002614825963974000
2022-11-11T23:59:24.325-07:00,0.07288999855518340,-0.5451174378395080,-2.762243032455440,-0.04431572556495670,0.1566312313079830,0.02677670121192930
2022-11-11T23:59:24.335-07:00,-0.4456927180290220,-0.6348885893821720,-2.675150156021120,-0.02006036043167110,0.04907983541488650,0.04003503918647770
2022-11-11T23:59:24.345-07:00,-0.9146003723144530,-0.689288854598999,-2.549161911010740,-0.009338140487670900,-0.01325207948684690,0.05667960643768310
2022-11-11T23:59:24.356-07:00,-1.222448945045470,-0.6768827438354490,-2.457249641418460,-0.02504155039787290,-0.02262979745864870,0.06978261470794680
2022-11-11T23:59:24.365-07:00,-1.187827587127690,-0.6190434694290160,-2.416643381118770,-0.06165787577629090,0.01330029964447020,0.06011486053466800
2022-11-11T23:59:24.375-07:00,-0.7759017944335940,-0.5514633655548100,-2.447016477584840,-0.0949307382106781,0.07269847393035890,0.03501749038696290
2022-11-11T23:59:24.385-07:00,-0.2473048269748690,-0.534375786781311,-2.498474597930910,-0.1148192584514620,0.1523095369338990,-0.02514736354351040
2022-11-11T23:59:24.395-07:00,0.2642415463924410,-0.5346407890319820,-2.507312774658200,-0.1191737651824950,0.2401897311210630,-0.06336337327957150
2022-11-11T23:59:24.408-07:00,0.4907921552658080,-0.5823497176170350,-2.473201751708980,-0.1102529168128970,0.2766125202178960,-0.07545602321624760
2022-11-11T23:59:24.416-07:00,0.4550592005252840,-0.6480986475944520,-2.469969987869260,-0.1002263426780700,0.2623741626739500,-0.06228074431419370
2022-11-11T23:59:24.426-07:00,0.2898482978343960,-0.7193140983581540,-2.476531982421880,-0.09042823314666750,0.1841253042221070,-0.03105968236923220
2022-11-11T23:59:24.436-07:00,-0.02358338236808780,-0.7747504711151120,-2.461382389068600,-0.07926779985427860,0.09926295280456540,-0.001025497913360600
2022-11-11T23:59:24.446-07:00,-0.4238279163837430,-0.8099639415740970,-2.409074306488040,-0.07675164937973020,0.04389572143554690,0.03208722174167630
2022-11-11T23:59:24.456-07:00,-0.8674300909042360,-0.8113410472869870,-2.333224534988400,-0.08056062459945680,0.005327105522155760,0.05538392066955570
2022-11-11T23:59:24.466-07:00,-1.276578664779660,-0.7757936120033260,-2.265852451324460,-0.09061312675476070,-0.02944380044937130,0.07210685312747960
2022-11-11T23:59:24.476-07:00,-1.550621867179870,-0.7024344205856320,-2.196809053421020,-0.1054282784461980,-0.04847192764282230,0.08145606517791750
2022-11-11T23:59:24.486-07:00,-1.638319492340090,-0.6036045551300050,-2.161641359329220,-0.1208133101463320,-0.04447674751281740,0.08898581564426420
2022-11-11T23:59:24.496-07:00,-1.528192758560180,-0.5193397402763370,-2.190245389938350,-0.1374449133872990,0.0009679198265075680,0.07839526236057280
2022-11-11T23:59:24.509-07:00,-1.269365429878240,-0.4808501005172730,-2.237141132354740,-0.1503981351852420,0.06403571367263790,0.05013580620288850
2022-11-11T23:59:24.516-07:00,-0.9326950311660770,-0.4844493567943570,-2.286816835403440,-0.1499519944190980,0.120211124420166,0.01103919744491580
2022-11-11T23:59:24.526-07:00,-0.5781384110450750,-0.5122291445732120,-2.340368032455440,-0.1410263776779180,0.1497094035148620,-0.01874654740095140
2022-11-11T23:59:24.536-07:00,-0.2889412343502050,-0.5444640517234800,-2.386294841766360,-0.1313290596008300,0.1471021771430970,-0.03620272129774090
2022-11-11T23:59:24.546-07:00,-0.07523505389690400,-0.5900225043296810,-2.435474157333370,-0.1267722249031070,0.1296341419219970,-0.05695610493421560
2022-11-11T23:59:24.556-07:00,0.09046415984630590,-0.6169388294219970,-2.471463680267330,-0.1273530125617980,0.1144976615905760,-0.06069421023130420
2022-11-11T23:59:24.566-07:00,0.2328790128231050,-0.6087295413017270,-2.470139741897580,-0.1296919584274290,0.1070232391357420,-0.05421280860900880
2022-11-11T23:59:24.576-07:00,0.3063143491745000,-0.5892549157142640,-2.438133239746090,-0.1323481202125550,0.1104989647865300,-0.05294185131788250
2022-11-11T23:59:24.586-07:00,0.2977150082588200,-0.5732921957969670,-2.397089958190920,-0.1351579427719120,0.1332051753997800,-0.05529510974884030
2022-11-11T23:59:24.596-07:00,0.2551425099372860,-0.5671496391296390,-2.333074331283570,-0.1369625329971310,0.1560786366462710,-0.05583405494689940
2022-11-11T23:59:24.606-07:00,0.1861342340707780,-0.5512111783027650,-2.242593765258790,-0.1322969794273380,0.1653096079826360,-0.04862851649522780
2022-11-11T23:59:24.616-07:00,0.1421854197978970,-0.5125836133956910,-2.142499923706060,-0.1308439373970030,0.1622312963008880,-0.04311972856521610
2022-11-11T23:59:24.626-07:00,0.10830157995224,-0.4538829028606420,-2.027110815048220,-0.130411684513092,0.1524485945701600,-0.03439617156982420
2022-11-11T23:59:24.636-07:00,0.07271403074264530,-0.3802153170108800,-1.894721150398250,-0.1290507316589360,0.1575933694839480,-0.02954047545790670
2022-11-11T23:59:24.646-07:00,0.04668153077363970,-0.3036163449287420,-1.771327137947080,-0.128187358379364,0.177665114402771,-0.02486485242843630
2022-11-11T23:59:24.656-07:00,0.04707754403352740,-0.2374093532562260,-1.657986640930180,-0.1219075918197630,0.2027280926704410,-0.02640187740325930
2022-11-11T23:59:24.666-07:00,0.0780923068523407,-0.1863473653793340,-1.565314173698430,-0.1121041774749760,0.2262174487113950,-0.03058040142059330
2022-11-11T23:59:24.676-07:00,0.1060933321714400,-0.1528559774160390,-1.464301347732540,-0.09837502241134640,0.2440798878669740,-0.03738570213317870
2022-11-11T23:59:24.686-07:00,0.1098517328500750,-0.1384159624576570,-1.36346709728241,-0.08182722330093380,0.2520169019699100,-0.04481697082519530
2022-11-11T23:59:24.696-07:00,0.09067990630865100,-0.1269185543060300,-1.265607953071590,-0.06457334756851200,0.2396926581859590,-0.04715347662568090
2022-11-11T23:59:24.706-07:00,0.07058289647102360,-0.1216100752353670,-1.174104928970340,-0.04696834087371830,0.2184261083602910,-0.05013561248779300
2022-11-11T23:59:24.716-07:00,0.07783254981040960,-0.1171612665057180,-1.087578058242800,-0.03601557016372680,0.2016754150390630,-0.05654364824295040
2022-11-11T23:59:24.726-07:00,0.1335243135690690,-0.1155846789479260,-1.015456914901730,-0.02735531330108640,0.1988146007061010,-0.06066542863845830
2022-11-11T23:59:24.736-07:00,0.202817901968956,-0.09619313478469850,-0.9517847895622250,-0.02166187763214110,0.2059175372123720,-0.05069964751601220
2022-11-11T23:59:24.747-07:00,0.2735451757907870,-0.08502636849880220,-0.8894423246383670,-0.01398295164108280,0.2112676799297330,-0.04266923293471340
2022-11-11T23:59:24.757-07:00,0.3527489304542540,-0.08453501015901570,-0.8367181420326230,0.000478208065032959,0.2135048508644100,-0.03487909585237500
2022-11-11T23:59:24.767-07:00,0.4264917969703670,-0.1176148727536200,-0.7841348052024840,0.01364362239837650,0.2067845165729520,-0.03450751304626470
2022-11-11T23:59:24.778-07:00,0.4935795068740850,-0.1409931629896160,-0.7412107586860660,0.02197599411010740,0.1966290473937990,-0.04995620250701900
2022-11-11T23:59:24.787-07:00,0.595616340637207,-0.1631317138671880,-0.709665060043335,0.0252687931060791,0.1821328699588780,-0.05028212442994120
2022-11-11T23:59:24.797-07:00,0.6845625042915340,-0.1892895549535750,-0.6581233143806460,0.02563184499740600,0.1588446795940400,-0.04567623510956760
2022-11-11T23:59:24.807-07:00,0.764584481716156,-0.1706965863704680,-0.622231662273407,0.02220690250396730,0.1513541638851170,-0.04012495651841160
2022-11-11T23:59:24.817-07:00,0.8547497987747190,-0.1371908336877820,-0.6126477718353270,0.02191454172134400,0.1401946991682050,-0.03500157594680790
2022-11-11T23:59:24.827-07:00,0.8680382966995240,-0.1405145823955540,-0.5786040425300600,0.02812540531158450,0.1269390732049940,-0.03500038012862210
2022-11-11T23:59:24.837-07:00,0.7652104496955870,-0.1735556274652480,-0.5225892066955570,0.04067915678024290,0.1302895545959470,-0.03112238645553590
2022-11-11T23:59:24.847-07:00,0.65126633644104,-0.2030773311853410,-0.4942859411239620,0.05088192224502560,0.1233199238777160,-0.01774752140045170
2022-11-11T23:59:24.857-07:00,0.5272508859634400,-0.2183899730443950,-0.4693089425563810,0.05056053400039670,0.0873865932226181,0.003663003444671630
2022-11-11T23:59:24.867-07:00,0.3498856425285340,-0.2004159539937970,-0.4274302124977110,0.03290802240371700,0.06866012513637540,0.009401917457580570
2022-11-11T23:59:24.877-07:00,0.1500066220760350,-0.1604829132556920,-0.3837897777557370,0.002902805805206300,0.07512395083904270,0.008140981197357180
2022-11-11T23:59:24.887-07:00,-0.02366314269602300,-0.09646401554346090,-0.3443659543991090,-0.02570891380310060,0.08551633358001710,0.005836248397827150
2022-11-11T23:59:24.897-07:00,-0.1370901018381120,-0.02001344598829750,-0.3085922300815580,-0.0452684760093689,0.09252718091011050,-0.0002784766256809240
2022-11-11T23:59:24.907-07:00,-0.1841847449541090,0.02310003526508810,-0.2523750364780430,-0.04337042570114140,0.09296232461929320,-0.00374835729598999
2022-11-11T23:59:24.918-07:00,-0.2340878546237950,0.01934071630239490,-0.166565865278244,-0.02246135473251340,0.09669873118400570,-0.002823773771524430
2022-11-11T23:59:24.927-07:00,-0.2626550495624540,-0.01129948347806930,-0.09681367874145510,-0.001050770282745360,0.1056279391050340,0.002355756238102910
2022-11-11T23:59:24.937-07:00,-0.2886450886726380,-0.02595299482345580,-0.03530851006507870,0.007445037364959720,0.1051669120788570,-0.001631855964660650
2022-11-11T23:59:24.947-07:00,-0.3066193163394930,-0.01234477385878560,0.001059886068105700,0.006394743919372560,0.1032286882400510,-0.006878137588500980
2022-11-11T23:59:24.957-07:00,-0.3112923502922060,0.003308220999315380,0.0393042117357254,-0.0006257891654968260,0.09671191871166230,-0.01482999138534070
2022-11-11T23:59:24.967-07:00,-0.3361682295799260,0.003391112200915810,0.07903404533863070,0.0006008744239807130,0.09521603584289550,-0.01788907870650290
2022-11-11T23:59:24.981-07:00,-0.3473412394523620,-0.003422851907089350,0.09651850163936620,0.006223559379577640,0.1051811575889590,-0.02677625045180320
2022-11-11T23:59:24.988-07:00,-0.3203785419464110,-0.01350298337638380,0.1039774790406230,0.01106321811676030,0.1068889200687410,-0.03380280733108520
2022-11-11T23:59:25.001-07:00,-0.3083993792533880,-0.03123404458165170,0.1293352991342550,0.01653951406478880,0.1026932299137120,-0.03825187683105470
2022-11-11T23:59:25.008-07:00,-0.2807921767234800,-0.01767995208501820,0.1332908868789670,0.01684457063674930,0.1048406660556790,-0.04599505662918090
2022-11-11T23:59:25.020-07:00,-0.2434762269258500,-0.01039966847747560,0.149224579334259,0.02157813310623170,0.08135291934013370,-0.05227792263031010
2022-11-11T23:59:25.028-07:00,-0.2412517964839940,-0.03392806276679040,0.1718545407056810,0.03097105026245120,0.05853788554668430,-0.05087381601333620
2022-11-11T23:59:25.038-07:00,-0.2362897992134090,-0.04360918700695040,0.1963095366954800,0.0323638916015625,0.04609820246696470,-0.04534000158309940
2022-11-11T23:59:25.048-07:00,-0.2371942400932310,-0.02585625648498540,0.2116821110248570,0.02276277542114260,0.04723480343818670,-0.04185569286346440
2022-11-11T23:59:25.060-07:00,-0.2202911525964740,0.0104868384078145,0.2058689594268800,0.007822036743164060,0.05798175930976870,-0.03889191150665280
2022-11-11T23:59:25.069-07:00,-0.2075508534908300,0.03976456820964810,0.2021783441305160,-0.002216875553131100,0.06983090937137600,-0.03771436214447020
2022-11-11T23:59:25.087-07:00,-0.183751255273819,0.0590549074113369,0.2048202008008960,-0.002101421356201170,0.08485820889472960,-0.03233671188354490
2022-11-11T23:59:25.092-07:00,-0.1567884087562560,0.06081292405724530,0.2197339087724690,0.00313037633895874,0.08576700091362,-0.03292840719223020
2022-11-11T23:59:25.098-07:00,-0.1625983566045760,0.05333210527896880,0.2468776255846020,0.008902430534362790,0.06581088900566100,-0.03616666793823240
2022-11-11T23:59:25.108-07:00,-0.1626953035593030,0.03901708126068120,0.2661288380622860,0.01556688547134400,0.03499080240726470,-0.03835374116897580
2022-11-11T23:59:25.118-07:00,-0.1728584617376330,0.007629865780472760,0.3055841028690340,0.01541554927825930,-0.005760923027992250,-0.04080045223236080
2022-11-11T23:59:25.128-07:00,-0.2177138775587080,-0.002807262353599070,0.3471765518188480,0.005343258380889890,-0.02411143481731420,-0.03683936595916750
2022-11-11T23:59:25.139-07:00,-0.2386753410100940,0.03321092575788500,0.3469509780406950,-0.01571589708328250,-0.01521307229995730,-0.03118008561432360
2022-11-11T23:59:25.148-07:00,-0.2328047454357150,0.0871056467294693,0.3237391412258150,-0.04234445095062260,-0.002845793962478640,-0.0308297872543335
2022-11-11T23:59:25.158-07:00,-0.2302196174860000,0.116940513253212,0.3043057918548580,-0.05135625600814820,0.01557806134223940,-0.02746963687241080
2022-11-11T23:59:25.168-07:00,-0.2050329297780990,0.1248931437730790,0.2993307113647460,-0.04255557060241700,0.02457103133201600,-0.02221786975860600
2022-11-11T23:59:25.178-07:00,-0.1892795413732530,0.1080923229455950,0.3044389486312870,-0.02554655075073240,0.01199409365653990,-0.01360702328383920
2022-11-11T23:59:25.188-07:00,-0.1817898005247120,0.1044372692704200,0.3096835017204290,-0.01665753126144410,-0.004312068223953250,-0.01185029745101930
2022-11-11T23:59:25.198-07:00,-0.1776312738657000,0.1104709282517430,0.3309669494628910,-0.0168764591217041,-0.02100440859794620,-0.01587861590087410
2022-11-11T23:59:25.208-07:00,-0.181790366768837,0.1144217625260350,0.3498546183109280,-0.01993995904922490,-0.02819859981536870,-0.01652711443603040
2022-11-11T23:59:25.218-07:00,-0.2014069408178330,0.1097665578126910,0.3424134850502010,-0.02158820629119870,-0.02722117304801940,-0.01542502641677860
2022-11-11T23:59:25.228-07:00,-0.1731657087802890,0.09695861488580700,0.316488116979599,-0.01571142673492430,-0.02695930004119870,-0.01625346951186660
2022-11-11T23:59:25.238-07:00,-0.1227571368217470,0.08344120532274250,0.2970816791057590,-0.009161949157714840,-0.04040378332138060,-0.01532536558806900
2022-11-11T23:59:25.248-07:00,-0.09651032090187070,0.06704781949520110,0.2836412489414220,3.4332275390625E-05,-0.05049422383308410,-0.01069438457489010
2022-11-11T23:59:25.258-07:00,-0.08293645083904270,0.06313750147819520,0.2567038834095000,-0.002191483974456790,-0.04726520180702210,-0.009866656735539440
2022-11-11T23:59:25.268-07:00,-0.06500835716724400,0.0786251425743103,0.2261609137058260,-0.009240865707397460,-0.03670960664749150,-0.008743941783905030
2022-11-11T23:59:25.278-07:00,-0.05434053018689160,0.08424495160579680,0.1955734491348270,-0.00947117805480957,-0.02700787782669070,-0.0088614821434021
2022-11-11T23:59:25.288-07:00,-0.04342436417937280,0.06744932383298870,0.1681173145771030,-0.003381311893463140,-0.02245137095451360,-0.006969215348362920
2022-11-11T23:59:25.298-07:00,-0.02981774136424070,0.04493176192045210,0.1554427891969680,0.007603168487548830,-0.02658119797706600,-0.004225732758641240
2022-11-11T23:59:25.308-07:00,-0.03583002835512160,0.02857962250709530,0.1505162119865420,0.01009321212768560,-0.03202253580093380,-0.001389682292938230
2022-11-11T23:59:25.318-07:00,-0.0211834404617548,0.03220844641327860,0.1306333243846890,0.005985796451568600,-0.03863885998725890,-0.001076102256774900
2022-11-11T23:59:25.329-07:00,-0.002398401498794560,0.0360829122364521,0.1310253441333770,-0.001174867153167730,-0.05786585807800290,-0.004361985251307490
2022-11-11T23:59:25.339-07:00,-0.02978448569774630,0.02972168475389480,0.1261544227600100,-0.002797484397888180,-0.06699350476264950,-0.001406250521540640
2022-11-11T23:59:25.349-07:00,-0.06129970028996470,0.03963067382574080,0.09546441584825520,-0.003106653690338140,-0.05887475609779360,0.002510014921426770
2022-11-11T23:59:25.359-07:00,-0.06223659962415700,0.04441317915916440,0.056427001953125,0.0008843541145324710,-0.04919883608818050,0.001093210652470590
2022-11-11T23:59:25.369-07:00,-0.0556182786822319,0.0370481088757515,0.03782855346798900,0.004752993583679200,-0.03733110427856450,0.001549359411001210
2022-11-11T23:59:25.379-07:00,-0.05059715360403060,0.02792811393737790,0.02053398452699180,0.01058560609817510,-0.02547508478164670,0.003768801689147950
2022-11-11T23:59:25.389-07:00,-0.04270987212657930,0.01909114420413970,0.01381962280720470,0.01075345277786260,-0.01829558610916140,0.005679488182067870
2022-11-11T23:59:25.399-07:00,-0.03970689326524730,0.02322943136096000,0.01560314279049640,0.00808340311050415,-0.0145474374294281,0.007636191323399540
2022-11-11T23:59:25.409-07:00,-0.03954693675041200,0.02892709895968440,0.01071970351040360,0.007399260997772220,-0.01209834218025210,0.00397193618118763
2022-11-11T23:59:25.419-07:00,-0.04810420423746110,0.0130408089607954,0.01212345622479920,0.01303303241729740,-0.01470154523849490,0.002358140423893930
2022-11-11T23:59:25.429-07:00,-0.03695587813854220,-0.00901023019105196,0.01747427880764010,0.0217624306678772,-0.01184183359146120,0.0007057208567857740
2022-11-11T23:59:25.439-07:00,-0.02921859733760360,-0.03797876462340360,0.0157456211745739,0.03000694513320920,-0.005912691354751590,0.002212345600128170
2022-11-11T23:59:25.449-07:00,-0.01519292686134580,-0.05752197280526160,0.006297791842371230,0.02796149253845220,0.005154192447662350,-0.001173019409179690
2022-11-11T23:59:25.459-07:00,0.01286427304148670,-0.05462871491909030,-0.01551296561956410,0.01595813035964970,0.0164451003074646,-0.001614812761545180
2022-11-11T23:59:25.469-07:00,0.04921778291463850,-0.0375797227025032,-0.04088063910603520,0.002573788166046140,0.02297896146774290,-0.002527836710214620
2022-11-11T23:59:25.479-07:00,0.06904847919940950,-0.03564973175525670,-0.05538501590490340,-5.17964363098145E-05,0.02893996238708500,-0.001577319577336310
2022-11-11T23:59:25.489-07:00,0.07339392602443700,-0.03863510116934780,-0.06253480166196820,0.004462897777557370,0.03230041265487670,-0.001234767958521840
2022-11-11T23:59:25.499-07:00,0.06256897747516630,-0.03435273841023450,-0.06171055510640140,0.01290619373321530,0.02803418040275570,0.001182140782475470
2022-11-11T23:59:25.509-07:00,0.02936901524662970,-0.03827990218997000,-0.05140065774321560,0.01777905225753780,0.02274712920188900,-0.001166222617030140
2022-11-11T23:59:25.519-07:00,-0.007978090085089210,-0.04148741438984870,-0.03501981869339940,0.01750653982162480,0.02816244959831240,-0.001060543581843380
2022-11-11T23:59:25.529-07:00,-0.03671689331531530,-0.03549253940582280,-0.02571899630129340,0.01543515920639040,0.03059840202331540,-0.001143813133239750
2022-11-11T23:59:25.539-07:00,-0.0490017905831337,-0.02767376229166990,-0.01639447174966340,0.01353007555007940,0.03114292025566100,-0.003676354885101320
2022-11-11T23:59:25.549-07:00,-0.04881773144006730,-0.03229198604822160,-0.006898970808833840,0.01361846923828130,0.03267642855644230,-0.003831507638096810
2022-11-11T23:59:25.559-07:00,-0.03647371381521230,-0.04169800505042080,0.004786181263625620,0.01435303688049320,0.03924262523651120,-0.002261042594909670
2022-11-11T23:59:25.569-07:00,-0.01200435776263480,-0.04136134684085850,0.01010770909488200,0.01154148578643800,0.04682141542434690,-0.003460586071014400
2022-11-11T23:59:25.579-07:00,0.01747656799852850,-0.03429491445422170,0.007317781914025550,0.008039534091949460,0.05089432001113890,-0.005929529666900640
2022-11-11T23:59:25.589-07:00,0.02393746376037600,-0.02903949841856960,0.007380099967122080,0.006196975708007810,0.0466105043888092,-0.007298050448298450
2022-11-11T23:59:25.600-07:00,0.02315529435873030,-0.03679275885224340,0.01302759908139710,0.01085251569747930,0.0454271137714386,-0.0107343178242445
2022-11-11T23:59:25.610-07:00,0.02027588523924350,-0.04714952781796460,0.01804126612842080,0.01692599058151250,0.03968155384063720,-0.01191729307174680
2022-11-11T23:59:25.620-07:00,0.01767264492809770,-0.05590946227312090,0.02822359651327130,0.0199083685874939,0.03351077437400820,-0.01145494170486930
2022-11-11T23:59:25.630-07:00,0.01842325739562510,-0.06308574974536900,0.03336775675415990,0.01862931251525880,0.02973780035972600,-0.01084369421005250
2022-11-11T23:59:25.640-07:00,0.01122979260981080,-0.06094669923186300,0.03475926071405410,0.01477241516113280,0.02861443161964420,-0.008313298225402830
2022-11-11T23:59:25.650-07:00,0.002812439575791360,-0.04710688441991810,0.03114641644060610,0.008882820606231690,0.02778241038322450,-0.005529822781682010
2022-11-11T23:59:25.660-07:00,-0.00187365896999836,-0.03971767425537110,0.02559852041304110,0.003846466541290280,0.02502775192260740,-0.006353974342346190
2022-11-11T23:59:25.672-07:00,-0.007953155785799030,-0.04697555676102640,0.03578697517514230,0.004664123058319090,0.01808393001556400,-0.003183962777256970
2022-11-11T23:59:25.680-07:00,-0.0327136293053627,-0.05181585252285000,0.04097188264131550,0.003752827644348150,0.01431411504745480,-0.005064429715275760
2022-11-11T23:59:25.690-07:00,-0.03467711061239240,-0.0287055391818285,0.03292940184473990,-0.001629292964935300,0.01244473457336430,-0.007319213822484020
2022-11-11T23:59:25.700-07:00,-0.02922109328210350,-0.016281358897686,0.03631747514009480,-0.006356656551361080,0.009903311729431150,-0.01005500555038450
2022-11-11T23:59:25.710-07:00,-0.02650873176753520,-0.01365301944315430,0.03926772624254230,-0.003695964813232420,0.01218965649604800,-0.01107561402022840
2022-11-11T23:59:25.720-07:00,-0.02124153077602390,-0.02072930335998540,0.03102684020996090,0.006925523281097410,0.01429927349090580,-0.01073652505874630
2022-11-11T23:59:25.730-07:00,-0.006386219523847100,-0.02922844886779790,0.02822572737932210,0.01486873626708980,0.01068288087844850,-0.00895988754928112
2022-11-11T23:59:25.740-07:00,-0.00771966390311718,-0.04599864035844800,0.03799952939152720,0.02016472816467290,0.008327782154083250,-0.011604905128479
