loggingTime(txt),motionRotationRateX(rad/s),motionRotationRateY(rad/s),motionRotationRateZ(rad/s),motionUserAccelerationX(G),motionUserAccelerationY(G),motionUserAccelerationZ(G)
2022-11-12T02:53:57.148-07:00,0.04926522448658940,0.01161805633455520,-0.04184858500957490,0.007914118468761440,0.04388812184333800,0.04605716466903690
2022-11-12T02:53:57.150-07:00,0.08353088051080700,0.006378719583153730,-0.01471044402569530,0.01451563835144040,0.04952040314674380,0.005685567855834960
2022-11-12T02:53:57.157-07:00,0.06909308582544330,-0.03462330996990200,0.01086122915148740,0.03641054779291150,0.02481929957866670,-0.01130920648574830
2022-11-12T02:53:57.159-07:00,0.03328502178192140,-0.05717601999640470,-0.009309819899499420,0.03539828956127170,-0.01212030649185180,-0.02973407506942750
2022-11-12T02:53:57.161-07:00,0.02327792905271050,-0.04968241974711420,0.00809047557413578,0.006673723459243770,-0.0571957528591156,-0.03077328205108640
2022-11-12T02:53:57.171-07:00,-0.003075147047638890,-0.04433901980519300,0.03318597376346590,-0.02676192671060560,-0.07898792624473570,-0.02860480546951290
2022-11-12T02:53:57.181-07:00,-0.02334127016365530,-0.03791281208395960,0.05690142512321470,-0.04992198944091800,-0.06902992725372310,-0.01156532764434810
2022-11-12T02:53:57.191-07:00,-0.05050378292799000,-0.03848738968372350,0.06044422835111620,-0.04722124338150020,-0.04882112145423890,-0.006425976753234860
2022-11-12T02:53:57.201-07:00,-0.0780366063117981,-0.03090670146048070,0.04465807229280470,-0.03333434462547300,-0.02330508828163150,0.0008939504623413090
2022-11-12T02:53:57.211-07:00,-0.04381228983402250,-0.01532191503793000,0.02235356718301770,-0.02447676658630370,-0.004068806767463680,0.006080150604248050
2022-11-12T02:53:57.221-07:00,0.01023043692111970,0.003220343729481100,-0.01178389601409440,-0.02201277762651440,0.01205727458000180,0.007357597351074220
2022-11-12T02:53:57.231-07:00,0.04669757187366490,0.01245545409619810,-0.0452481135725975,-0.01459351927042010,0.02205032110214230,0.01989412307739260
2022-11-12T02:53:57.241-07:00,0.06155773997306820,0.03560471534729000,-0.09070640802383420,-0.007361568510532380,0.02043278515338900,0.03255152702331540
2022-11-12T02:53:57.251-07:00,0.05702321231365200,0.0603310652077198,-0.1244883388280870,-0.001339435577392580,0.01347939670085910,0.03665804862976070
2022-11-12T02:53:57.261-07:00,0.06952594965696340,0.06092282012104990,-0.08377154171466830,0.003962807357311250,0.00921320915222168,0.0375179648399353
2022-11-12T02:53:57.271-07:00,0.09068060666322710,0.04424254223704340,-0.02671224623918530,0.01217714697122570,0.06085251271724700,0.03394913673400880
2022-11-12T02:53:57.281-07:00,0.04251227527856830,0.06940729171037670,-0.1250308305025100,0.02816608548164370,0.002623021602630620,0.01500445604324340
2022-11-12T02:53:57.291-07:00,0.03737214207649230,0.04982742667198180,-0.07036864757537840,0.04296991229057310,-0.0472264289855957,-0.006843328475952150
2022-11-12T02:53:57.301-07:00,0.02827718108892440,0.02940870635211470,-0.04886548221111300,0.03260809928178790,-0.006520047783851620,-0.01489359140396120
2022-11-12T02:53:57.311-07:00,0.01257195696234700,0.0182610135525465,-0.02699294313788410,0.01949997991323470,-0.02930408716201780,-0.02462929487228390
2022-11-12T02:53:57.321-07:00,0.0005927905440330510,0.02384752593934540,-0.01240894012153150,0.006625741720199590,-0.04682493209838870,-0.03700178861618040
2022-11-12T02:53:57.331-07:00,0.00587124191224575,0.01746892184019090,0.00814506970345974,-0.004719138145446780,-0.04074239730834960,-0.03686636686325070
2022-11-12T02:53:57.341-07:00,0.004043515771627430,5.50877302885056E-06,0.02881572768092160,-0.01118007302284240,-0.02421723306179050,-0.02803254127502440
2022-11-12T02:53:57.351-07:00,0.003201289102435110,-0.004874866921454670,0.02197326719760900,-0.01066762953996660,-0.004683539271354680,-0.01787000894546510
2022-11-12T02:53:57.361-07:00,-0.005968773737549780,-0.006207779049873350,0.01497687771916390,-0.01272769272327420,0.008265599608421330,-0.01387596130371090
2022-11-12T02:53:57.371-07:00,-0.01444251835346220,-0.009297212585806850,0.02380525693297390,-0.01819509267807010,0.01653532683849340,-0.00360572338104248
2022-11-12T02:53:57.381-07:00,-0.01241825055330990,-0.01119178533554080,0.02071519009768960,-0.02211055904626850,0.01599738001823430,0.001560509204864500
2022-11-12T02:53:57.391-07:00,-0.01383172255009410,-0.01346226315945390,0.02399247698485850,-0.01980222761631010,0.008497625589370730,0.005761146545410160
2022-11-12T02:53:57.401-07:00,-0.02678586915135380,-0.01703063398599630,0.03110338188707830,-0.012068010866642,-0.004718199372291570,0.009183645248413090
2022-11-12T02:53:57.411-07:00,-0.02636745385825630,-0.0106651782989502,0.03447574377059940,-0.003647841513156890,-0.01749125123023990,0.01040828227996830
2022-11-12T02:53:57.421-07:00,-0.01182393170893190,-0.01243191957473760,0.03890777751803400,0.002645097672939300,-0.0218300074338913,0.004645347595214840
2022-11-12T02:53:57.431-07:00,0.005518706515431400,-0.01113589201122520,0.03634208813309670,0.008755862712860110,-0.01725611090660100,0.008591949939727780
2022-11-12T02:53:57.441-07:00,0.005475830286741260,-0.01110499911010270,0.01107481401413680,0.01216979324817660,-0.01184947788715360,0.005573749542236330
2022-11-12T02:53:57.451-07:00,-0.008720782585442070,-0.01080209761857990,0.00388001836836338,0.01038055866956710,-0.008501678705215450,0.009805858135223390
2022-11-12T02:53:57.461-07:00,-0.009844902902841570,0.0003917005378752950,-0.01163582503795620,0.005410440266132360,-0.008707806468009950,0.01210969686508180
2022-11-12T02:53:57.472-07:00,0.01504233852028850,0.02017206326127050,-0.03111711516976360,0.0050688236951828,-0.006522327661514280,0.005078375339508060
2022-11-12T02:53:57.482-07:00,0.03563922643661500,0.02731732465326790,-0.03891484811902050,0.008974514901638030,0.001758038997650150,0.004310011863708500
2022-11-12T02:53:57.492-07:00,0.03226413205266000,0.01859394088387490,-0.0401604101061821,0.01363871246576310,0.006943568587303160,0.003717899322509770
2022-11-12T02:53:57.502-07:00,0.01592138037085530,0.01157198380678890,-0.02804435975849630,0.01495645195245740,0.00159965455532074,-0.002323031425476070
2022-11-12T02:53:57.512-07:00,-0.001692468300461770,0.006741508841514590,-0.01365050580352550,0.01208703219890590,-0.01052668690681460,-0.008490145206451420
2022-11-12T02:53:57.522-07:00,0.009141005575656890,0.01406147237867120,-0.006058100145310160,0.005996435880661010,-0.01322361826896670,-0.01283413171768190
2022-11-12T02:53:57.532-07:00,-0.004259388893842700,-0.0008709707763046030,0.01415768824517730,0.006426714360713960,-0.007736653089523320,-0.01480698585510250
2022-11-12T02:53:57.542-07:00,-0.009226983413100240,-0.01267143711447720,0.03131057694554330,0.007930673658847810,-0.0003211647272109990,-0.01548522710800170
2022-11-12T02:53:57.552-07:00,-0.007389036007225510,-0.01036737021058800,0.02115807496011260,0.003363646566867830,-0.00278705358505249,-0.01732677221298220
2022-11-12T02:53:57.572-07:00,0.009323365986347200,-0.006528689991682770,0.01206204853951930,-0.002598263323307040,-0.001843154430389400,-0.01428717374801640
2022-11-12T02:53:57.595-07:00,0.0001198127865791320,-0.013040984980762,0.006167939398437740,-0.006244048476219180,1.50948762893677E-05,-0.00629812479019165
2022-11-12T02:53:57.596-07:00,-0.003623791038990020,-0.01592971570789810,0.003892534878104930,-0.00342896580696106,0.001771524548530580,0.004537820816040040
2022-11-12T02:53:57.598-07:00,-0.005081074312329290,-0.004254949744790790,-0.005442110821604730,-0.002744786441326140,-0.004208698868751530,0.00529712438583374
2022-11-12T02:53:57.602-07:00,-0.004689589142799380,0.003256229683756830,-0.01178203150630000,-0.002046212553977970,-0.009516611695289610,0.005904495716094970
2022-11-12T02:53:57.612-07:00,-0.007795369252562520,0.004144127480685710,-0.01475305482745170,-0.001037359237670900,-0.007335081696510320,0.0087013840675354
2022-11-12T02:53:57.622-07:00,-0.01637314446270470,0.009558334015309810,-0.01229895185679200,0.00480438768863678,-0.01011255383491520,0.007308006286621090
2022-11-12T02:53:57.632-07:00,-0.02235819958150390,0.01067592948675160,-0.01058920193463560,0.009069822728633880,-0.01093865931034090,0.007874190807342530
2022-11-12T02:53:57.642-07:00,-0.007088433019816880,0.01942414790391920,-0.0110443364828825,0.01078972220420840,-0.01355688273906710,0.00662684440612793
2022-11-12T02:53:57.652-07:00,-0.00563131645321846,0.01157997269183400,-0.009754568338394170,0.009942688047885900,-0.01107755303382870,0.006299734115600590
2022-11-12T02:53:57.662-07:00,-0.01961477659642700,0.0009161434136331080,-0.001209815498441460,0.005703836679458620,-0.008372887969017030,0.01467740535736080
2022-11-12T02:53:57.672-07:00,-0.03328488022089010,0.004900598898530010,-0.004929452668875460,0.002775013446807860,-0.005949527025222780,0.01388686895370480
2022-11-12T02:53:57.682-07:00,-0.006275368854403500,0.01477613300085070,0.0003553242422640320,-0.0005068555474281310,-0.006529495120048520,0.002503395080566410
2022-11-12T02:53:57.692-07:00,0.01735462434589860,0.01790424808859830,0.003367625176906590,-0.004129670560359960,-0.009147077798843380,-0.007577419281005860
2022-11-12T02:53:57.702-07:00,0.01540652476251130,0.005948518868535760,0.002200894989073280,-0.004054151475429540,-0.005769029259681700,-0.009210050106048580
2022-11-12T02:53:57.713-07:00,-0.005467066541314130,-0.001630837214179340,0.0005521322600543500,0.001296982169151310,-0.004423677921295170,-0.01045131683349610
2022-11-12T02:53:57.723-07:00,-0.01504805404692890,-0.002309410832822320,0.005541298072785140,0.001633040606975560,-0.00619053840637207,-0.007333457469940190
2022-11-12T02:53:57.733-07:00,-0.01526859775185590,-0.005843392107635740,0.01012433134019380,-0.0002844333648681640,-0.006544053554534910,-0.006929337978363040
2022-11-12T02:53:57.743-07:00,-0.01875201240181920,-0.01315403543412690,0.01506023481488230,-0.0002919882535934450,-0.001614212989807130,-0.006015241146087650
2022-11-12T02:53:57.753-07:00,-0.02194757200777530,-0.01567867770791050,0.01347298920154570,0.005089536309242250,0.0005799233913421630,-0.007917582988739010
2022-11-12T02:53:57.763-07:00,-0.01148507744073870,-0.01088152639567850,0.009781582280993460,0.007808603346347810,0.001795798540115360,-0.007829606533050540
2022-11-12T02:53:57.773-07:00,-0.006323572248220440,-0.01081205159425740,0.01500483974814420,0.008237473666667940,0.002270027995109560,-0.008969902992248540
2022-11-12T02:53:57.783-07:00,0.01679985597729680,-0.005653775297105310,0.007631080690771340,0.007041722536087040,-0.002172216773033140,-0.003694415092468260
2022-11-12T02:53:57.793-07:00,0.01677435636520390,-0.0104858810082078,-2.2045336663723E-05,0.004255212843418120,-0.003020763397216800,0.000517725944519043
2022-11-12T02:53:57.803-07:00,0.006004001945257190,-0.008024853654205800,0.004916253965348010,-0.001439064741134640,-0.007067054510116580,0.004598855972290040
2022-11-12T02:53:57.813-07:00,-0.01958954334259030,-0.008706057444214820,0.001924192532897000,-0.005486205220222470,-0.01164363324642180,0.009740114212036130
2022-11-12T02:53:57.823-07:00,-0.0332089476287365,-0.007477807346731420,-0.005410685669630770,-0.007160656154155730,-0.01270134747028350,0.013691246509552
2022-11-12T02:53:57.833-07:00,-0.01472378149628640,0.003279865486547350,-0.01106271240860220,-0.004107467830181120,-0.01221111416816710,0.007080316543579100
2022-11-12T02:53:57.843-07:00,0.02135166712105270,0.002964813495054840,-0.007114043459296230,0.001636922359466550,-0.009249597787857060,-0.002346396446228030
2022-11-12T02:53:57.853-07:00,0.01995616964995860,0.002529386663809420,-0.002070548944175240,0.00626818835735321,-0.01169025897979740,-0.002217471599578860
2022-11-12T02:53:57.863-07:00,0.007990319281816480,0.00376988691277802,0.0006589251570403580,0.004203453660011290,-0.01276955008506780,-0.001918554306030270
2022-11-12T02:53:57.873-07:00,0.009224262088537220,0.008774399757385250,0.003472820390015840,0.002181582152843480,-0.01426279544830320,0.001295506954193120
2022-11-12T02:53:57.883-07:00,0.007749669253826140,0.005387125071138140,0.002910893876105550,-0.001380525529384610,-0.01020833849906920,-0.001006066799163820
2022-11-12T02:53:57.893-07:00,0.01622537896037100,-0.004745603539049630,0.008573306724429130,0.0001981109380722050,-0.0005358606576919560,-0.0005794763565063480
2022-11-12T02:53:57.903-07:00,0.019938625395298,-0.01139045692980290,0.002878935541957620,0.002739354968070980,0.001007139682769780,-0.004156231880187990
2022-11-12T02:53:57.913-07:00,0.009971613064408300,-0.009059258736670020,-0.001994648948311810,0.00208359956741333,0.0006587803363800050,-0.005144417285919190
2022-11-12T02:53:57.923-07:00,0.00658700056374073,-0.006480786483734850,-0.000345087144523859,-0.0007499158382415770,0.0001251697540283200,-0.004004180431365970
2022-11-12T02:53:57.933-07:00,0.01494156941771510,-0.006145195104181770,-0.008804352022707460,-0.00232241302728653,-0.002360537648200990,-0.005698978900909420
2022-11-12T02:53:57.943-07:00,0.0158957801759243,-0.01228617783635860,-0.007132685743272310,-0.00303223729133606,0.00197957456111908,-0.005011618137359620
2022-11-12T02:53:57.953-07:00,0.02216832153499130,-0.006242400035262110,-0.006646925117820500,-0.001834496855735780,0.003801628947258000,-0.007528722286224370
2022-11-12T02:53:57.963-07:00,0.04664570093154910,-0.002153915353119370,-0.008265327662229540,0.0005770698189735410,0.004534333944320680,-0.01523488759994510
2022-11-12T02:53:57.973-07:00,0.05188177898526190,-0.005936169996857640,-0.01170266978442670,0.001922585070133210,0.004270195960998540,-0.01281905174255370
2022-11-12T02:53:57.983-07:00,0.05020291730761530,-0.01161882281303410,-0.00457844790071249,0.002032153308391570,-0.004236176609992980,-0.008789718151092530
2022-11-12T02:53:57.994-07:00,0.0284295491874218,-0.01041757129132750,-0.0083686588332057,-1.46403908729553E-05,-0.01474906504154210,-0.0026589035987854
2022-11-12T02:53:58.003-07:00,0.009199129417538640,0.0002973913215100770,-0.0116930827498436,-0.006360508501529690,-0.02411811053752900,0.005135297775268560
2022-11-12T02:53:58.014-07:00,-0.01085973437875510,0.001749013783410190,-0.003536086529493330,-0.009917125105857850,-0.0208323746919632,0.008610427379608150
2022-11-12T02:53:58.024-07:00,-0.02897508814930920,-0.001252102432772520,0.006991389207541940,-0.005772128701210020,-0.01190082728862760,0.01291662454605100
2022-11-12T02:53:58.034-07:00,-0.03663836792111400,-0.003005760721862320,0.005466197151690720,-0.0001625493168830870,-0.001925855875015260,0.01239722967147830
2022-11-12T02:53:58.044-07:00,0.001768143847584720,0.0105973994359374,0.00377242686226964,0.003323480486869810,0.0005506128072738650,0.008997440338134770
2022-11-12T02:53:58.054-07:00,0.03454040735960010,0.01137617416679860,-0.00446979096159339,0.004542045295238500,0.004223376512527470,0.0008311867713928220
2022-11-12T02:53:58.070-07:00,0.0554017499089241,0.01237459480762480,-0.006631478667259220,0.005560271441936490,0.009373635053634640,0.002402782440185550
2022-11-12T02:53:58.086-07:00,0.06918040663003920,0.0188873540610075,-0.0141360005363822,0.005170248448848720,0.008200958371162420,0.003379225730896000
2022-11-12T02:53:58.088-07:00,0.07026804238557820,0.02483499236404900,-0.01220414321869610,0.00199773907661438,0.003604725003242490,0.005037367343902590
2022-11-12T02:53:58.094-07:00,0.05138739198446270,0.02975002303719520,-0.00668580736964941,-0.00364038348197937,-0.001340806484222410,0.006093502044677730
2022-11-12T02:53:58.104-07:00,0.04930932819843290,0.03324142470955850,-0.002871627919375900,-0.006626352667808530,-0.003284215927124020,0.00923764705657959
2022-11-12T02:53:58.114-07:00,0.03444653004407880,0.02590731345117090,0.0007271016947925090,-0.005876228213310240,-0.005041971802711490,0.003539502620697020
2022-11-12T02:53:58.124-07:00,0.01954374648630620,0.02081162109971050,-0.00689220242202282,-0.004050903022289280,-0.01019337773323060,-0.002310514450073240
2022-11-12T02:53:58.134-07:00,0.02990437485277650,0.01732034981250760,-0.02291617542505260,0.0009288787841796880,-0.01183579862117770,-0.01294350624084470
2022-11-12T02:53:58.144-07:00,0.0472431555390358,0.01307420618832110,-0.0341872051358223,-0.002011202275753020,-0.0108361542224884,-0.02068978548049930
2022-11-12T02:53:58.154-07:00,0.05172865092754360,0.009169279597699640,-0.03212618455290790,-0.003303490579128270,-0.00649183988571167,-0.01650828123092650
2022-11-12T02:53:58.164-07:00,0.05189695954322820,0.00801533181220293,-0.03447030112147330,-0.002226993441581730,-0.001639887690544130,-0.01193112134933470
2022-11-12T02:53:58.174-07:00,0.06544752418994900,0.01307067833840850,-0.03455259278416630,0.001682162284851070,-0.0005818009376525880,-0.01114881038665770
2022-11-12T02:53:58.184-07:00,0.05648544803261760,0.02223248407244680,-0.03585834056138990,0.0004096478223800660,-0.0009205490350723270,-0.003368377685546880
2022-11-12T02:53:58.194-07:00,0.03571679070591930,0.06433545798063280,-0.0265540536493063,-0.002030879259109500,-0.004379004240036010,0.001775979995727540
2022-11-12T02:53:58.204-07:00,0.04049023985862730,0.04176357388496400,-0.03341701999306680,0.0007131993770599370,-0.002066925168037420,0.00310063362121582
2022-11-12T02:53:58.214-07:00,0.0552140586078167,0.03331682831048970,-0.02636284008622170,0.006181582808494570,-0.007030770182609560,0.01178741455078130
2022-11-12T02:53:58.224-07:00,0.05468409135937690,0.03937152028083800,-0.02368849329650400,0.009043537080287930,0.001082271337509160,0.006112277507781980
2022-11-12T02:53:58.234-07:00,0.06417720019817350,0.03583191335201260,-0.02270951494574550,0.006969809532165530,0.002171888947486880,0.00689697265625
2022-11-12T02:53:58.244-07:00,0.07130041718482970,0.04127907752990720,-0.02181575819849970,0.001433953642845150,-0.0008534044027328490,0.004491269588470460
2022-11-12T02:53:58.255-07:00,0.06177269294857980,0.05378448590636250,-0.01670754887163640,-0.001406453549861910,-0.001791298389434810,0.001628220081329350
2022-11-12T02:53:58.264-07:00,0.05843361839652060,0.06549493968486790,-0.0178937204182148,-0.003869853913784030,-0.007952898740768430,0.0003816485404968260
2022-11-12T02:53:58.274-07:00,0.05485635995864870,0.06045633926987650,-0.02302723005414010,-0.005141079425811770,-0.01354622840881350,0.004489660263061520
2022-11-12T02:53:58.285-07:00,0.06274757534265520,0.06697735190391540,-0.01139427535235880,-0.007511913776397710,-0.01594528555870060,0.008521616458892820
2022-11-12T02:53:58.294-07:00,0.06965465098619460,0.07439062744379040,-1.2457836419344E-05,-0.00964423269033432,-0.01235546171665190,0.005521833896636960
2022-11-12T02:53:58.304-07:00,0.07817862927913670,0.07043397426605230,0.007114160805940630,-0.009632989764213560,-0.01178580522537230,0.007759809494018560
2022-11-12T02:53:58.315-07:00,0.0857296884059906,0.06553541868925100,0.01165298745036130,-0.006725773215293880,-0.008145824074745180,0.005625665187835690
2022-11-12T02:53:58.325-07:00,0.07630715519189840,0.05673420429229740,0.02052850276231770,-0.003108598291873930,-0.005579441785812380,0.003713071346282960
2022-11-12T02:53:58.335-07:00,0.05125819891691210,0.04734316468238830,0.03162802383303640,-0.002280943095684050,-0.01095205545425420,0.0009601116180419920
2022-11-12T02:53:58.345-07:00,0.0395653247833252,0.04194040596485140,0.03364377096295360,-0.001622036099433900,-0.01218809187412260,-0.0001273751258850100
2022-11-12T02:53:58.355-07:00,0.02673554420471190,0.03852703422307970,0.03664276003837590,-0.002194344997406010,-0.01020114123821260,-0.00414508581161499
2022-11-12T02:53:58.365-07:00,0.01419391855597500,0.03654830530285840,0.0413629412651062,-0.001050218939781190,0.0001448988914489750,-0.00840294361114502
2022-11-12T02:53:58.375-07:00,0.008272048085927960,0.03971194103360180,0.04752043634653090,0.001806631684303280,0.004899501800537110,-0.009628653526306150
2022-11-12T02:53:58.385-07:00,-0.001987779513001440,0.02964785508811470,0.03955119475722310,0.005002856254577640,0.007633998990058900,-0.01150029897689820
2022-11-12T02:53:58.395-07:00,0.02355016954243180,0.03067174181342130,0.02858030423522000,0.005632147192955020,0.004767358303070070,-0.01453155279159550
2022-11-12T02:53:58.405-07:00,0.04116298258304600,0.01309514418244360,0.01891888864338400,0.002372398972511290,0.00347118079662323,-0.01267409324646000
2022-11-12T02:53:58.415-07:00,0.05249243974685670,0.008214536122977730,0.00881405733525753,0.002639025449752810,0.008777126669883730,-0.01045340299606320
2022-11-12T02:53:58.425-07:00,0.04269174486398700,0.00696205161511898,-0.002701717894524340,0.004288539290428160,0.006188482046127320,-0.006651341915130620
2022-11-12T02:53:58.435-07:00,0.04139428585767750,0.008287207223474980,-0.009179058484733110,0.003071188926696780,0.002437114715576170,-0.00391918420791626
2022-11-12T02:53:58.445-07:00,0.03774255514144900,0.007265619002282620,-0.02338729053735730,0.003620713949203490,0.0006679296493530270,-0.001513481140136720
2022-11-12T02:53:58.455-07:00,0.03328052908182140,0.01247226446866990,-0.03271181508898740,0.004757530987262730,-0.003000989556312560,-0.000496208667755127
2022-11-12T02:53:58.465-07:00,0.04932420700788500,0.02062393538653850,-0.03936252743005750,0.0058155357837677,-0.004473522305488590,0.001112103462219240
2022-11-12T02:53:58.475-07:00,0.0437011756002903,0.01605691388249400,-0.04003977030515670,0.007687114179134370,-0.00799153745174408,0.0004424452781677250
2022-11-12T02:53:58.485-07:00,0.04043108224868770,0.02168763428926470,-0.04493039846420290,0.008574880659580230,-0.01005586981773380,0.003770589828491210
2022-11-12T02:53:58.495-07:00,0.02822784520685670,0.0266561284661293,-0.05282427370548250,0.006402157247066500,-0.01358820497989660,0.004774987697601320
2022-11-12T02:53:58.505-07:00,0.01457754708826540,0.03210096061229710,-0.0478135347366333,0.003669261932373050,-0.01831385493278500,0.008304357528686520
2022-11-12T02:53:58.515-07:00,0.03756685554981230,0.04000752046704290,-0.0437341071665287,0.003647655248641970,-0.01977455615997310,0.01131337881088260
2022-11-12T02:53:58.525-07:00,0.04472010582685470,0.039665836840868,-0.03742747381329540,0.001041561365127560,-0.01652683317661290,0.01103866100311280
2022-11-12T02:53:58.535-07:00,0.04555346816778180,0.04329059645533560,-0.02141148969531060,0.0018467977643013,-0.01176457107067110,0.006999790668487550
2022-11-12T02:53:58.545-07:00,0.03102459944784640,0.06901939958333970,-0.01117616333067420,0.005709737539291380,-0.009862989187240600,-0.0004357099533081060
2022-11-12T02:53:58.555-07:00,0.005066467449069020,0.04894319176673890,-0.007307122461497780,0.00474993884563446,-0.006319746375083920,-0.005871891975402830
2022-11-12T02:53:58.570-07:00,-0.003470562398433690,0.03078948706388470,-0.002138193231076000,0.006217285990715030,-0.009699776768684390,-0.001641154289245610
2022-11-12T02:53:58.587-07:00,-0.007386405952274800,0.03166373819112780,0.003276279661804440,0.004093267023563390,-0.006176874041557310,-0.001666665077209470
2022-11-12T02:53:58.588-07:00,0.0105848703533411,0.03029114194214340,-0.001493441872298720,0.002270705997943880,-0.006248623132705690,0.0003826618194580080
2022-11-12T02:53:58.596-07:00,0.02215667068958280,0.01838032156229020,-0.01050398126244550,0.001478426158428190,-0.003218352794647220,-0.002260565757751470
2022-11-12T02:53:58.606-07:00,0.04728865250945090,0.01771719567477700,-0.01541165448725220,0.0005209743976593020,-0.0006156563758850100,0.0008148550987243650
2022-11-12T02:53:58.616-07:00,0.03950220718979840,0.01838608086109160,-0.02713329344987870,0.0002449676394462590,-0.001630067825317380,-0.004883348941802980
2022-11-12T02:53:58.626-07:00,0.01098907366395000,0.03896885365247730,-0.01985141076147560,-0.001302607357501980,0.0006638020277023320,-0.005371570587158200
2022-11-12T02:53:58.636-07:00,0.009263111278414730,0.02330224215984340,-0.0294537041336298,-0.001062363386154180,-0.003861382603645330,-0.004497885704040530
2022-11-12T02:53:58.646-07:00,-0.01402783114463090,0.01563260518014430,-0.03185534477233890,-0.0001802816987037660,-0.006912991404533390,-0.003860831260681150
2022-11-12T02:53:58.656-07:00,0.01404471509158610,0.02619613334536550,-0.01904633641242980,-0.001881040632724760,-0.002107128500938420,-0.001046419143676760
2022-11-12T02:53:58.666-07:00,0.02082272805273530,0.01992145925760270,-0.02324747294187550,-0.001372784376144410,0.0007719248533248900,0.0007600784301757810
2022-11-12T02:53:58.676-07:00,0.02153169550001620,0.02234676666557790,-0.01984235458076,0.001161530613899230,-0.002346828579902650,0.001784026622772220
2022-11-12T02:53:58.686-07:00,0.005094397813081740,0.02324052341282370,-0.01846443489193920,-0.000271432101726532,-0.004078328609466550,0.005353868007659910
2022-11-12T02:53:58.696-07:00,-0.005489736795425420,0.03234021365642550,-0.01535945571959020,-0.000211663544178009,-0.008561775088310240,0.006193220615386960
2022-11-12T02:53:58.706-07:00,0.02837635204195980,0.04989310726523400,-0.005457823164761070,-0.0007316321134567260,-0.008052140474319460,0.003587305545806890
2022-11-12T02:53:58.716-07:00,0.038852259516716,0.03987525776028630,-0.009324733167886730,0.002929568290710450,-0.002499371767044070,0.000462651252746582
2022-11-12T02:53:58.726-07:00,0.03446843475103380,0.02914112061262130,-0.01374957524240020,0.006708517670631410,-0.005470111966133120,0.001975417137146000
2022-11-12T02:53:58.736-07:00,0.01637391932308670,0.01978350803256040,-0.009403563104569910,0.01015997678041460,-0.008787065744400020,-0.002719342708587650
2022-11-12T02:53:58.746-07:00,0.002123076468706130,0.0194732490926981,-0.01283744350075720,0.005573414266109470,-0.009006991982460020,-0.005535423755645750
2022-11-12T02:53:58.756-07:00,0.03498471900820730,0.02824000827968120,-0.009521541185677050,0.002085775136947630,-0.006437540054321290,-0.006146490573883060
2022-11-12T02:53:58.766-07:00,0.02577204629778860,0.01962734572589400,0.000726036261767149,0.0003844499588012700,-0.004516810178756710,-0.003205478191375730
2022-11-12T02:53:58.776-07:00,0.01166288554668430,0.01110762823373080,0.004950874950736760,0.004053846001625060,-0.001818552613258360,0.002781450748443600
2022-11-12T02:53:58.786-07:00,-0.01567180082201960,0.007376006804406640,0.008835095912218090,0.002935543656349180,-0.004012539982795720,0.003728866577148440
2022-11-12T02:53:58.796-07:00,-0.02474945038557050,0.01200591214001180,0.01471775211393830,-8.28579068183899E-05,-0.008213013410568240,0.0008595585823059080
2022-11-12T02:53:58.806-07:00,-0.002726174890995030,0.01519451476633550,0.008078224956989290,-0.004725106060504910,-0.009546741843223570,-0.007666289806365970
2022-11-12T02:53:58.817-07:00,0.007359981536865230,0.007891894318163400,0.003544193226844070,-0.00587877631187439,-0.00382271409034729,-0.009367227554321290
2022-11-12T02:53:58.826-07:00,0.00132020004093647,-0.0001995877828449010,0.004401464480906730,0.001484155654907230,-0.001915112137794500,-0.008448660373687740
2022-11-12T02:53:58.836-07:00,-0.005214333534240720,-0.002066263929009440,-0.008441097103059290,0.00265984982252121,-0.005425125360488890,-0.008967459201812740
2022-11-12T02:53:58.846-07:00,0.01234708540141580,8.02439171820879E-05,-0.01678211614489560,0.003308907151222230,-0.0058450847864151,-0.008642315864562990
2022-11-12T02:53:58.856-07:00,0.02853124774992470,-0.00617618765681982,-0.02511115372180940,0.002325743436813350,-0.001386597752571110,-0.004892826080322270
2022-11-12T02:53:58.866-07:00,0.03435052186250690,-0.007060889154672620,-0.02151002734899520,-0.0001305341720581060,0.003114968538284300,0.004278004169464110
2022-11-12T02:53:58.876-07:00,0.01222630962729450,-0.001504736486822370,-0.02253907173871990,0.001905746757984160,-0.00234636664390564,0.005993664264678960
2022-11-12T02:53:58.886-07:00,-0.01997796446084980,0.004526524338871240,-0.02190950140357020,-4.15518879890442E-05,-0.008202046155929570,0.008527696132659910
2022-11-12T02:53:58.896-07:00,-0.02947043627500530,0.01546775549650190,-0.01563536003232000,-0.0009741336107254030,-0.01045447587966920,0.009989321231842040
2022-11-12T02:53:58.906-07:00,0.003154618665575980,0.02408973872661590,-0.01220361050218340,-0.001549050211906430,-0.008985280990600590,0.004129528999328610
2022-11-12T02:53:58.917-07:00,0.01397617347538470,0.02300816215574740,-0.009507159702479840,0.002748042345047000,-0.005154728889465330,0.001847267150878910
2022-11-12T02:53:58.927-07:00,0.02212890796363350,0.02548942901194100,-0.007462118286639450,0.005044631659984590,-0.003601729869842530,-0.0005131363868713380
2022-11-12T02:53:58.937-07:00,0.02336168475449090,0.02850838750600820,-0.006462368182837960,0.007318288087844850,-0.007844045758247380,-0.006925642490386960
2022-11-12T02:53:58.947-07:00,0.01693600974977020,0.02684870734810830,0.003240060061216350,0.004470452666282650,-0.009369522333145140,-0.002700209617614750
2022-11-12T02:53:58.957-07:00,0.01767770200967790,0.02587132714688780,0.001379309222102170,0.004799582064151760,-0.007689610123634340,-0.002390503883361820
2022-11-12T02:53:58.967-07:00,-0.001958584412932400,0.01766159944236280,0.003548188135027890,0.003850951790809630,-0.00899110734462738,-0.001709043979644780
2022-11-12T02:53:58.977-07:00,-0.02269801869988440,0.01914717815816400,0.01114698499441150,0.0009996667504310610,-0.01221629977226260,0.001228690147399900
2022-11-12T02:53:58.987-07:00,-0.04101257771253590,0.01612635515630250,0.005914673674851660,-0.0005749613046646120,-0.01118594408035280,-0.0004146099090576170
2022-11-12T02:53:58.997-07:00,-0.006316879764199260,0.02046487666666510,0.002197432797402140,0.0005834922194480900,-0.009376227855682370,-0.003337442874908450
2022-11-12T02:53:59.007-07:00,0.0230210330337286,0.01063381880521770,-0.002107567153871060,0.001665756106376650,-0.002692312002182010,-0.007839500904083250
2022-11-12T02:53:59.017-07:00,0.02911760844290260,-0.002917743287980560,-0.006289262790232900,0.005653925240039830,0.005028247833251950,-0.004496634006500240
2022-11-12T02:53:59.027-07:00,0.02531914226710800,-0.005338556598871950,-0.01655175350606440,0.003465339541435240,0.003087848424911500,-0.003766059875488280
2022-11-12T02:53:59.037-07:00,0.01538122445344930,-0.0009804933797568080,-0.02213001064956190,-0.001041881740093230,-0.002066612243652340,-0.0003163814544677730
2022-11-12T02:53:59.047-07:00,0.01847954466938970,0.001980941742658620,-0.02811706252396110,-0.007880061864852910,-0.001593828201293950,0.003042519092559810
2022-11-12T02:53:59.057-07:00,0.01090867817401890,0.002953561721369620,-0.02750453539192680,-0.01060369610786440,-0.000458940863609314,0.006253838539123540
2022-11-12T02:53:59.085-07:00,0.01554284617304800,0.0118732862174511,-0.02167567610740660,-0.00957334041595459,-0.005773782730102540,0.004027724266052250
2022-11-12T02:53:59.088-07:00,0.01178352534770970,0.01029323320835830,-0.02037898264825340,-0.0004111155867576600,-0.009976014494895940,-0.00242537260055542
2022-11-12T02:53:59.090-07:00,0.02476004511117940,0.01345467194914820,-0.01305928453803060,0.005118347704410550,-0.01128952205181120,-0.005230069160461430
2022-11-12T02:53:59.097-07:00,0.01189780794084070,0.01075579039752480,-0.006898859981447460,0.01048736274242400,-0.005528479814529420,-0.003552377223968510
2022-11-12T02:53:59.107-07:00,-0.001198550686240200,0.02355227991938590,0.009195953607559200,0.01159393787384030,-0.004873171448707580,-0.001259028911590580
2022-11-12T02:53:59.117-07:00,-0.01729875802993770,0.01378333941102030,0.004787889309227470,0.007360711693763730,-0.0008720904588699340,-0.0005683302879333500
2022-11-12T02:53:59.127-07:00,-0.02218139730393890,0.0059075728058815,0.001964406110346320,0.004926532506942750,-0.0051146000623703,0.004563629627227780
2022-11-12T02:53:59.137-07:00,-0.005449222400784490,0.01408074796199800,-0.000600750558078289,0.002515465021133420,-0.001174911856651310,0.001756012439727780
2022-11-12T02:53:59.147-07:00,-0.001488037407398220,0.01137391105294230,-0.006392326671630140,0.00514741986989975,-3.84896993637085E-05,0.001367866992950440
2022-11-12T02:53:59.157-07:00,0.02097263187170030,0.009982575662434100,-0.01462282612919810,0.006273075938224790,-1.0758638381958E-05,0.00157850980758667
2022-11-12T02:53:59.167-07:00,0.01905994862318040,0.008566039614379410,-0.02118352428078650,0.005954809486866000,-0.003192827105522160,0.001478254795074460
2022-11-12T02:53:59.177-07:00,0.01202603988349440,0.01526225917041300,-0.03062762506306170,-0.001300305128097530,-0.003213182091712950,-0.002018928527832030
2022-11-12T02:53:59.187-07:00,0.01379570923745630,0.01118309609591960,-0.02496734261512760,-0.007733136415481570,-0.00275006890296936,0.002364456653594970
2022-11-12T02:53:59.198-07:00,0.01041226275265220,0.01715832948684690,-0.02123412303626540,-0.008612029254436490,-0.007473587989807130,0.003129184246063230
2022-11-12T02:53:59.208-07:00,0.01390260271728040,0.009288955479860310,-0.02965983189642430,-0.005936615169048310,-0.01442097127437590,-0.003482043743133550
2022-11-12T02:53:59.218-07:00,-0.001499388366937640,0.01020548213273290,-0.02446267381310460,-0.003130875527858730,-0.0148429274559021,-0.006204545497894290
2022-11-12T02:53:59.228-07:00,-0.002400601282715800,0.007792391814291480,-0.01226885803043840,-0.001536577939987180,-0.01316434144973760,-0.005212604999542240
2022-11-12T02:53:59.238-07:00,-0.02090740948915480,0.01569156162440780,0.005498420912772420,0.0008408203721046450,-0.008765339851379400,-0.0045052170753479
2022-11-12T02:53:59.248-07:00,-0.01907861605286600,0.009570285677909850,0.002194503787904980,0.004543028771877290,-0.007943481206893920,-0.005091726779937740
2022-11-12T02:53:59.258-07:00,-0.01966098323464390,-0.0009577898308634760,0.003216891083866360,0.00591374933719635,-0.0084342360496521,0.0009936094284057620
2022-11-12T02:53:59.268-07:00,-0.02372177131474020,-0.0001633688807487490,0.003096249420195820,0.005102157592773440,-0.003001302480697630,0.00231701135635376
2022-11-12T02:53:59.278-07:00,-0.001954555511474610,0.005733002908527850,-0.005008282139897350,0.001610785722732540,-0.00172249972820282,-0.001932859420776370
2022-11-12T02:53:59.288-07:00,0.007768379524350170,0.007155663333833220,-0.0044277124106884,-0.001691520214080810,0.002246707677841190,-0.0005816817283630370
2022-11-12T02:53:59.298-07:00,0.02689360454678540,0.01212139334529640,-0.01650568097829820,-0.003568187355995180,0.00267300009727478,-0.001284241676330570
2022-11-12T02:53:59.308-07:00,0.03002441674470900,0.02162861078977590,-0.01845218613743780,-0.003028824925422670,-0.0004744231700897220,0.001298069953918460
2022-11-12T02:53:59.318-07:00,0.02713951282203200,0.03156423568725590,-0.01746574975550180,-0.002404756844043730,-0.007065415382385250,0.002101361751556400
2022-11-12T02:53:59.328-07:00,0.02406702376902100,0.05142023041844370,0.002515680622309450,-0.002894341945648190,-0.006722256541252140,0.001314282417297360
2022-11-12T02:53:59.338-07:00,0.02388782799243930,0.02556836046278480,-0.01453494187444450,0.001630321145057680,-0.01116600632667540,0.005414485931396480
2022-11-12T02:53:59.348-07:00,0.004294684156775480,0.03010638616979120,-0.0141333369538188,0.004737004637718200,-0.01973816752433780,0.001902163028717040
2022-11-12T02:53:59.358-07:00,-0.01106246653944250,0.02333266846835610,-0.0031206333078444,0.006228215992450710,-0.006041556596755980,0.00622326135635376
2022-11-12T02:53:59.368-07:00,-0.02034091949462890,0.01846174709498880,0.006068337243050340,0.006880283355712890,-0.00804610550403595,0.006232857704162600
2022-11-12T02:53:59.378-07:00,0.00273456983268261,0.01881834492087360,0.003057900350540880,0.00576530396938324,-0.007056444883346560,0.001161098480224610
2022-11-12T02:53:59.389-07:00,0.0110446996986866,0.01756852306425570,0.002378793898969890,0.00445643812417984,-0.002141371369361880,0.0002107024192810060
2022-11-12T02:53:59.398-07:00,0.01401551999151710,0.01275878772139550,0.009247886016964910,0.003265216946601870,0.001051023602485660,-0.001411676406860350
2022-11-12T02:53:59.408-07:00,0.008707575500011440,0.01691784709692000,0.003864305093884470,-0.0002133101224899290,-1.98483467102051E-05,-0.0007658004760742190
2022-11-12T02:53:59.418-07:00,0.009031880646944050,0.01801486872136590,0.004331957083195450,-5.83529472351074E-05,0.0004383474588394170,-0.001489877700805660
2022-11-12T02:53:59.428-07:00,0.01187986694276330,0.01697490550577640,0.005958615336567160,-0.002603776752948760,-0.001455590128898620,-0.0007728338241577150
2022-11-12T02:53:59.438-07:00,0.01481606811285020,0.0247973408550024,-0.006826688535511490,-0.002284049987792970,-0.005815565586090090,-0.004906892776489260
2022-11-12T02:53:59.448-07:00,0.01164397597312930,0.02596620284020900,-0.009926075115799900,-0.002814926207065580,-0.0003185421228408810,-0.002779901027679440
2022-11-12T02:53:59.458-07:00,0.0282682292163372,0.02381330356001850,-0.005645043682307010,-0.004396423697471620,-0.0009472370147705080,-0.005096435546875
2022-11-12T02:53:59.468-07:00,0.01591568812727930,0.02800112403929230,-0.01708651706576350,-0.0002558454871177670,0.004005938768386840,-0.01018804311752320
2022-11-12T02:53:59.478-07:00,0.0154784619808197,0.01860728859901430,-0.02581076510250570,0.001261807978153230,0.003861680626869200,-0.005613148212432860
2022-11-12T02:53:59.488-07:00,0.01913045719265940,0.01674174517393110,-0.01790570467710500,-0.0008635073900222780,0.002435863018035890,-0.005084753036499020
2022-11-12T02:53:59.498-07:00,0.02096920274198060,0.018812520429492,-0.02363229915499690,-0.002716921269893650,0.005244508385658260,0.0008202195167541500
2022-11-12T02:53:59.509-07:00,0.02986602298915390,0.02019603177905080,-0.02078697830438610,-0.001646965742111210,0.002944335341453550,0.001607120037078860
2022-11-12T02:53:59.519-07:00,0.02704916521906850,0.01646151393651960,-0.02802971191704270,-0.0004041194915771480,0.0006443262100219730,0.005101799964904790
2022-11-12T02:53:59.529-07:00,0.01508411392569540,0.01095303148031240,-0.03159914910793300,0.003036551177501680,-0.004895299673080440,0.007578551769256590
2022-11-12T02:53:59.539-07:00,0.005278555676341060,0.01751592569053170,-0.0310438759624958,-0.000192590057849884,-0.01009054481983190,0.008880555629730230
2022-11-12T02:53:59.549-07:00,0.006373647600412370,0.02406570315361020,-0.03223617374897000,-0.003250502049922940,-0.009055286645889280,0.009507954120635990
2022-11-12T02:53:59.559-07:00,0.004891298711299900,0.02379276230931280,-0.03307320550084110,-0.00595671683549881,-0.009882703423500060,0.01046007871627810
2022-11-12T02:53:59.586-07:00,0.0005343668162822720,0.02952015586197380,-0.03107956238090990,-0.003813959658145910,-0.007808491587638860,0.006569564342498780
2022-11-12T02:53:59.588-07:00,0.0008865687996149060,0.03653372451663020,-0.03567671403288840,-0.003859460353851320,-0.005560293793678280,0.005874693393707280
2022-11-12T02:53:59.591-07:00,0.001803228631615640,0.0366050973534584,-0.03755930066108700,-0.004684895277023320,-0.004090800881385800,0.003418266773223880
2022-11-12T02:53:59.599-07:00,0.001296298578381540,0.03656848147511480,-0.04397512227296830,-0.002805203199386600,0.0009663552045822140,0.005128979682922360
2022-11-12T02:53:59.609-07:00,0.01976958103477960,0.03536100313067440,-0.04962342232465740,-0.002748705446720120,0.0001843869686126710,0.004085183143615720
2022-11-12T02:53:59.619-07:00,0.02709214016795160,0.02813111990690230,-0.06545484811067580,-0.0006064325571060180,0.0009668916463851930,0.003616392612457280
2022-11-12T02:53:59.629-07:00,0.03444326668977740,0.02643628418445590,-0.07195668667554860,0.0001434832811355590,-0.001432836055755620,-0.001257658004760740
2022-11-12T02:53:59.639-07:00,0.0513378269970417,0.02058505266904830,-0.07083762437105180,0.0004865452647209170,0.001906976103782650,-0.0107150673866272
2022-11-12T02:53:59.649-07:00,0.04986429587006570,0.02165431156754490,-0.06873825937509540,0.003778509795665740,-0.01136025786399840,-0.01916450262069700
2022-11-12T02:53:59.659-07:00,0.03643790632486340,0.005790993105620150,-0.05658785253763200,0.01107563078403470,-0.02479176223278050,-0.02426224946975710
2022-11-12T02:53:59.669-07:00,0.02731657773256300,-0.005754875019192700,-0.04090423136949540,0.01305770874023440,-0.01275862753391270,-0.0193668007850647
2022-11-12T02:53:59.679-07:00,0.009174227714538570,-0.01512297708541160,-0.03110033646225930,0.01229047775268560,-0.005238503217697140,-0.008513510227203370
2022-11-12T02:53:59.689-07:00,-0.02080311253666880,-0.02269833907485010,-0.02002904191613200,0.006106533110141750,-0.01229488849639890,0.0008793473243713380
2022-11-12T02:53:59.699-07:00,-0.04324047639966010,-0.02257959544658660,-0.0250975713133812,-0.0001463219523429870,-0.0076274573802948,0.006131947040557860
2022-11-12T02:53:59.709-07:00,-0.03930032998323440,-0.009066183120012280,-0.03608604148030280,-0.005019299685955050,-0.01278609037399290,0.009981930255889890
2022-11-12T02:53:59.719-07:00,-0.01192063838243480,-0.002140632830560210,-0.03342128172516820,-0.01129773259162900,-0.0056954026222229,0.01014715433120730
2022-11-12T02:53:59.729-07:00,0.01079639233648780,-0.003825082210823890,-0.04765161871910100,-0.0136154368519783,0.008756324648857120,0.007606267929077150
2022-11-12T02:53:59.739-07:00,0.01946328394114970,0.01518332958221440,-0.05550501123070720,-0.01395626366138460,0.004746556282043460,0.002519607543945310
2022-11-12T02:53:59.749-07:00,0.02446896024048330,0.01265865378081800,-0.05211800336837770,-0.01218691468238830,0.01027044653892520,0.0005359053611755370
2022-11-12T02:53:59.759-07:00,0.02591385878622530,-0.001715625636279580,-0.05676601827144620,-0.01048391312360760,0.01344950497150420,0.002980530261993410
2022-11-12T02:53:59.769-07:00,0.02161445282399650,0.004273823462426660,-0.06434217840433120,-0.004472330212593080,0.00930534303188324,-0.005919098854064940
2022-11-12T02:53:59.779-07:00,0.01274326257407670,0.01164778415113690,-0.06392459571361540,-0.006196394562721250,-0.006408825516700750,-0.01110202074050900
2022-11-12T02:53:59.789-07:00,0.03600224852561950,0.01313356123864650,-0.04169758781790730,0.006346441805362700,-0.009725198149681090,-0.01340848207473760
2022-11-12T02:53:59.800-07:00,0.05216966569423680,-6.17692712694407E-05,-0.04940557479858400,0.009076125919818880,0.002454385161399840,-0.007336437702178960
2022-11-12T02:53:59.810-07:00,0.04155590385198590,-0.004004312679171560,-0.06644261628389360,0.01485100388526920,0.0007951110601425170,-0.002113103866577150
2022-11-12T02:53:59.820-07:00,0.02627165429294110,0.001647547585889700,-0.05391031131148340,0.006812602281570440,-0.005887895822525020,-0.001896679401397710
2022-11-12T02:53:59.830-07:00,0.002587631344795230,0.009174439124763010,-0.07846678793430330,0.007285363972187040,-0.007970035076141360,0.004302024841308590
2022-11-12T02:53:59.840-07:00,0.01827624812722210,0.03776966407895090,-0.0488460436463356,0.005729436874389650,-0.001317217946052550,0.003804266452789310
2022-11-12T02:53:59.850-07:00,0.02540659531950950,0.03208674490451810,0.004303727298974990,0.009950235486030580,0.01803113520145420,-0.003591775894165040
2022-11-12T02:53:59.860-07:00,0.05232841894030570,0.02828515134751800,-0.03922723606228830,0.008954308927059170,0.01566483080387120,0.001526832580566410
2022-11-12T02:53:59.870-07:00,0.06079887226223950,0.02535141259431840,-0.005893250461667780,-0.0004205182194709780,0.01789593696594240,-0.0005843639373779300
2022-11-12T02:53:59.880-07:00,0.06460253149271010,-0.001365020405501130,-0.0286257266998291,0.00779213011264801,0.01152691245079040,0.001182913780212400
2022-11-12T02:53:59.890-07:00,0.05459330230951310,0.007280931808054450,-0.04470642656087880,-0.005126878619194030,0.002582535147666930,0.001768052577972410
2022-11-12T02:53:59.900-07:00,0.05913299694657330,0.01473558600991960,-0.03070059604942800,-0.005748778581619260,0.008055716753005980,-0.0001818537712097170
2022-11-12T02:53:59.910-07:00,0.07248662412166600,0.01137947011739020,-0.0428888164460659,-0.003614693880081180,-0.0007955878973007200,-0.001586258411407470
2022-11-12T02:53:59.920-07:00,0.07524631917476650,0.004304117523133760,-0.07532265782356260,-0.004390247166156770,-0.01119895279407500,0.002564907073974610
2022-11-12T02:53:59.930-07:00,0.05446008592844010,0.01329761184751990,-0.09375625848770140,-0.006919994950294500,-0.01607774198055270,0.007840335369110110
2022-11-12T02:53:59.940-07:00,0.03164687752723690,0.02735700644552710,-0.1128197014331820,-0.01062901318073270,-0.02366843819618230,0.01414251327514650
2022-11-12T02:53:59.950-07:00,-0.005860814824700360,0.01107843406498430,-0.137456864118576,-0.01746740937232970,-0.02619518339633940,0.01792401075363160
2022-11-12T02:53:59.961-07:00,-0.02231405675411220,0.03865782916545870,-0.1848323792219160,-0.02265655994415280,-0.0301976203918457,0.02259385585784910
2022-11-12T02:53:59.974-07:00,0.0005971174687147140,0.05797826126217840,-0.1080912575125690,-0.01580187678337100,-0.02100463211536410,0.001823186874389650
2022-11-12T02:53:59.980-07:00,0.03438387811183930,0.05147985368967060,-0.1099184527993200,0.00651220977306366,0.004157006740570070,-0.005406618118286130
2022-11-12T02:53:59.990-07:00,0.05521059036254880,0.03453495353460310,-0.1410553306341170,0.008943475782871250,0.01181362569332120,-0.01484817266464230
2022-11-12T02:54:00.000-07:00,0.07997047156095510,0.02161629498004910,-0.1287885457277300,0.02022790908813480,0.004021257162094120,-0.01859325170516970
2022-11-12T02:54:00.010-07:00,0.08309835195541380,0.01212239265441900,-0.1209524646401410,0.01862665265798570,0.007283926010131840,-0.01601612567901610
2022-11-12T02:54:00.020-07:00,0.08066096156835560,0.001412556506693360,-0.1082800701260570,0.01567565649747850,0.01094137132167820,-0.008232593536376950
2022-11-12T02:54:00.030-07:00,0.07525207847356800,0.002600060310214760,-0.1132098510861400,0.01363746821880340,0.009629011154174810,-0.001225292682647710
2022-11-12T02:54:00.040-07:00,0.0819072499871254,0.006856923457235100,-0.08813006430864330,0.004786871373653410,0.008630245923995970,-0.000563502311706543
2022-11-12T02:54:00.050-07:00,0.06628648191690450,0.01790238358080390,-0.09617840498685840,0.00467999279499054,0.01315432786941530,0.005336999893188480
2022-11-12T02:54:00.061-07:00,0.0700870156288147,0.02769569307565690,-0.09060094505548480,0.002734079957008360,0.001737862825393680,0.002688467502593990
2022-11-12T02:54:00.085-07:00,0.07284551858901980,0.0189802311360836,-0.09065260738134380,0.004426255822181700,0.007584616541862490,-0.000196993350982666
2022-11-12T02:54:00.087-07:00,0.08684365451335910,0.02389426343142990,-0.0908222496509552,0.001082397997379300,0.005561038851737980,0.006494462490081790
2022-11-12T02:54:00.091-07:00,0.09252817183732990,0.011766760610044,-0.09658986330032350,0.002593941986560820,0.008690148591995240,-0.0002064108848571780
2022-11-12T02:54:00.101-07:00,0.08078756183385850,0.00770390871912241,-0.1169494614005090,-0.001508429646492000,0.01793865859508510,0.003854990005493160
2022-11-12T02:54:00.110-07:00,0.06285756081342700,0.01258042268455030,-0.1246127113699910,-0.005042895674705510,0.01662681996822360,0.003327310085296630
2022-11-12T02:54:00.120-07:00,0.06511203199625020,0.03585075959563260,-0.1383490264415740,-0.01371486485004430,0.01971544325351720,0.004929184913635250
2022-11-12T02:54:00.130-07:00,0.08475763350725170,0.04917162656784060,-0.1566963493824010,-0.0196106880903244,0.0187581479549408,0.0073586106300354
2022-11-12T02:54:00.141-07:00,0.1116092205047610,0.04650153964757920,-0.1658762544393540,-0.01150460541248320,0.01508066058158880,0.01127147674560550
2022-11-12T02:54:00.151-07:00,0.1345422267913820,0.0558236688375473,-0.1824387311935430,-0.006889559328556060,0.00646074116230011,0.01134532690048220
2022-11-12T02:54:00.161-07:00,0.1514104306697850,0.05234184861183170,-0.1700973659753800,-0.006133824586868290,-0.001211345195770260,0.008358180522918700
2022-11-12T02:54:00.171-07:00,0.1601019203662870,0.04928959906101230,-0.1617265194654470,0.005884729325771330,-0.01333075761795040,0.002585887908935550
2022-11-12T02:54:00.181-07:00,0.138489305973053,0.05432776734232900,-0.1491366922855380,0.00589221715927124,-0.01279734075069430,0.003281354904174810
2022-11-12T02:54:00.191-07:00,0.1127993911504750,0.06796794384717940,-0.1407352238893510,0.006691843271255490,-0.01825162768363950,0.004410326480865480
2022-11-12T02:54:00.201-07:00,0.09687558561563490,0.07922510057687760,-0.1282244920730590,0.005199767649173740,-0.01267907023429870,-0.0008138418197631840
2022-11-12T02:54:00.211-07:00,0.08547778427600860,0.07133148610591890,-0.1144311800599100,0.009885691106319430,-0.003200739622116090,-0.007628023624420170
2022-11-12T02:54:00.221-07:00,0.09288347512483600,0.05313520506024360,-0.1222496852278710,0.02175317704677580,0.001679897308349610,-0.006943106651306150
2022-11-12T02:54:00.231-07:00,0.1021973490715030,0.03855892643332480,-0.1203157007694240,0.02086949348449710,0.002434656023979190,-0.01143807172775270
2022-11-12T02:54:00.241-07:00,0.1150338798761370,0.02817543037235740,-0.1194355264306070,0.01614585518836980,0.00462949275970459,-0.003925442695617680
2022-11-12T02:54:00.251-07:00,0.1244103312492370,0.03577315807342530,-0.123625747859478,0.006507933139801030,-0.006535649299621580,-0.0002878904342651370
2022-11-12T02:54:00.261-07:00,0.1303898692131040,0.04926906153559690,-0.1196224763989450,-0.002990618348121640,-0.003548920154571530,0.006119787693023680
2022-11-12T02:54:00.271-07:00,0.1443288624286650,0.06296649575233460,-0.1355042457580570,-0.001441657543182370,0.0008397400379180910,0.01144373416900640
2022-11-12T02:54:00.281-07:00,0.156784862279892,0.08332782238721850,-0.1442303657531740,-0.003556817770004270,0.007023453712463380,0.01564198732376100
2022-11-12T02:54:00.291-07:00,0.1824369579553600,0.1015760749578480,-0.1404209733009340,-0.01094318926334380,0.02172905206680300,0.01604443788528440
2022-11-12T02:54:00.301-07:00,0.1931474208831790,0.1064514890313150,-0.1522139757871630,-0.01916104555130010,0.0313117504119873,0.01233762502670290
2022-11-12T02:54:00.311-07:00,0.2112667709589010,0.1091258376836780,-0.1695540845394140,-0.009579241275787350,0.01839274168014530,0.008410215377807620
2022-11-12T02:54:00.321-07:00,0.2331380844116210,0.1142693683505060,-0.187090739607811,-0.0110437273979187,0.01975108683109280,-0.001343667507171630
2022-11-12T02:54:00.331-07:00,0.2683682441711430,0.1152842938899990,-0.1993796229362490,-0.0111122727394104,0.02114783227443700,-0.01066577434539800
2022-11-12T02:54:00.341-07:00,0.303352564573288,0.1232849955558780,-0.2037818282842640,-0.00722852349281311,0.01219344139099120,-0.01622861623764040
2022-11-12T02:54:00.352-07:00,0.3267132639884950,0.1005647704005240,-0.1974658817052840,-0.003603920340538030,0.005172602832317350,-0.01830893754959110
2022-11-12T02:54:00.361-07:00,0.3148793578147890,0.08204585313797000,-0.1985479146242140,0.01151587069034580,-0.01027319580316540,-0.01859873533248900
2022-11-12T02:54:00.371-07:00,0.308476060628891,0.06145162880420690,-0.1942748725414280,0.02365610003471380,-0.03740964829921720,-0.01286596059799190
2022-11-12T02:54:00.381-07:00,0.2676936686038970,0.04239704087376600,-0.1686981469392780,0.01662303507328030,-0.03360565006732940,-0.01165437698364260
2022-11-12T02:54:00.391-07:00,0.2051730304956440,0.03665659949183460,-0.1434652209281920,0.00632709264755249,-0.0383136123418808,-0.004192054271698000
2022-11-12T02:54:00.402-07:00,0.156279593706131,0.0451594702899456,-0.1185982227325440,0.003885060548782350,-0.0537448525428772,-0.0006505846977233890
2022-11-12T02:54:00.412-07:00,0.1663226336240770,0.04813182353973390,-0.08574893325567250,0.004348307847976690,-0.03494767844676970,-0.002126514911651610
2022-11-12T02:54:00.422-07:00,0.1974307149648670,0.02951236814260480,-0.05960921198129650,0.007691457867622380,-0.009501159191131590,-0.003141880035400390
2022-11-12T02:54:00.432-07:00,0.1972213983535770,0.03231054916977880,-0.05451405048370360,0.01071462035179140,-0.009901642799377440,-0.009697496891021730
2022-11-12T02:54:00.442-07:00,0.2155735790729520,0.03305190801620480,-0.04078785330057140,0.01158091425895690,-0.008380360901355740,-0.01497787237167360
2022-11-12T02:54:00.452-07:00,0.2681891322135930,0.03667647019028660,0.0008914186619222160,0.006077080965042110,0.01591168344020840,-0.01517891883850100
2022-11-12T02:54:00.462-07:00,0.3296813666820530,0.03119821473956110,0.04091127216815950,0.006003066897392270,0.02922704070806500,-0.02019518613815310
2022-11-12T02:54:00.472-07:00,0.3611729741096500,0.02844956517219540,0.05106856673955920,0.008675247430801390,0.04036454856395720,-0.02432066202163700
2022-11-12T02:54:00.482-07:00,0.3921065926551820,0.01114601083099840,0.04339200630784040,0.01388774812221530,0.03873515129089360,-0.04055112600326540
2022-11-12T02:54:00.492-07:00,0.375432014465332,0.009131062775850300,0.04725492000579830,0.01487691700458530,0.05116941034793850,-0.04759138822555540
2022-11-12T02:54:00.502-07:00,0.3622414171695710,0.01602698490023610,0.04064042866230010,0.0142238438129425,0.03825520724058150,-0.04190438985824590
2022-11-12T02:54:00.512-07:00,0.3456954658031460,0.03457324206829070,0.04387803375720980,0.001779422163963320,0.02659231424331670,-0.03339874744415280
2022-11-12T02:54:00.522-07:00,0.3633686900138860,0.04447866976261140,0.06479210406541820,-0.005368292331695560,0.03145939111709600,-0.02655446529388430
2022-11-12T02:54:00.532-07:00,0.3991226851940160,0.0384998694062233,0.07357228547334670,0.0008342117071151730,0.04976921528577810,-0.02311384677886960
2022-11-12T02:54:00.542-07:00,0.4084403514862060,0.0349477156996727,0.07393819838762280,0.01771645247936250,0.04979266226291660,-0.02659046649932860
2022-11-12T02:54:00.552-07:00,0.3839826583862310,0.03195938095450400,0.08096015453338620,0.03364056348800660,0.03474739193916320,-0.03003853559494020
2022-11-12T02:54:00.570-07:00,0.3242299556732180,0.02078385837376120,0.08234047144651410,0.0361800491809845,0.01667144894599920,-0.01417028903961180
2022-11-12T02:54:00.586-07:00,0.26959627866745,0.02217429503798490,0.0851873904466629,0.02763032913208010,0.007407389581203460,0.008663058280944820
2022-11-12T02:54:00.588-07:00,0.2659013569355010,0.03953547403216360,0.1159732639789580,0.01537279784679410,0.01396007463335990,0.02060920000076290
2022-11-12T02:54:00.592-07:00,0.28335040807724,0.05289442464709280,0.1871632933616640,0.009773686528205870,0.04926299676299100,-0.008365631103515630
2022-11-12T02:54:00.602-07:00,0.2600196003913880,0.0674772635102272,0.2149517834186550,0.03131668269634250,0.06655045598745350,-0.04664301872253420
2022-11-12T02:54:00.612-07:00,0.202594131231308,0.07188718765974050,0.2008772492408750,0.06508269906044010,0.05137694254517560,-0.08986473083496090
2022-11-12T02:54:00.622-07:00,0.1141112297773360,0.04321576282382010,0.1971125900745390,0.07938690483570100,0.04114287346601490,-0.114015519618988
2022-11-12T02:54:00.632-07:00,0.007068932056427000,0.005240950733423230,0.1912448406219480,0.08184978365898130,0.01714871451258660,-0.09755736589431760
2022-11-12T02:54:00.642-07:00,-0.08174572885036470,-0.00196146871894598,0.1950318664312360,0.05908790230751040,-0.01704494655132290,-0.07227617502212520
2022-11-12T02:54:00.652-07:00,-0.1612155139446260,-0.01216829940676690,0.217058077454567,0.02822750806808470,-0.03725957497954370,-0.05228441953659060
2022-11-12T02:54:00.662-07:00,-0.2331205308437350,-0.00937737338244915,0.2023196071386340,0.0147237628698349,-0.06370545923709870,-0.0269809365272522
2022-11-12T02:54:00.672-07:00,-0.2838883697986600,0.01894960552454000,0.1774571239948270,0.008493319153785710,-0.08920440077781680,-0.007848799228668210
2022-11-12T02:54:00.683-07:00,-0.3080247044563290,0.03582961857318880,0.1681448668241500,0.005414694547653200,-0.09966021776199340,-0.007348775863647460
2022-11-12T02:54:00.693-07:00,-0.3058891296386720,0.03936789184808730,0.1890474855899810,0.01969987154006960,-0.09148220717906950,-0.0113179087638855
2022-11-12T02:54:00.703-07:00,-0.2712956964969640,0.05349353328347210,0.226268082857132,0.03977617621421810,-0.07997731119394300,-0.01792353391647340
2022-11-12T02:54:00.713-07:00,-0.212327167391777,0.05888323858380320,0.2616527080535890,0.05450323224067690,-0.05361472815275190,-0.02742141485214230
2022-11-12T02:54:00.723-07:00,-0.1699724793434140,0.05290094763040540,0.2881391644477840,0.06578072905540470,-0.0289229191839695,-0.03800511360168460
2022-11-12T02:54:00.733-07:00,-0.1511745750904080,0.03346120193600660,0.3175596296787260,0.07915781438350680,-0.0244431346654892,-0.04768937826156620
2022-11-12T02:54:00.743-07:00,-0.1582745611667630,-0.01706562004983430,0.3241972923278810,0.09999813139438630,-0.04126185551285740,-0.04067003726959230
2022-11-12T02:54:00.753-07:00,-0.168513610959053,-0.0701911598443985,0.3136226832866670,0.110574334859848,-0.06189233437180520,-0.02203065156936650
2022-11-12T02:54:00.763-07:00,-0.1781121790409090,-0.1139090806245800,0.3001734614372250,0.09528301656246190,-0.06997760385274890,0.00373995304107666
2022-11-12T02:54:00.773-07:00,-0.1828185170888900,-0.1320697069168090,0.2833438813686370,0.0737227201461792,-0.07740891724824910,0.02942419052124020
2022-11-12T02:54:00.783-07:00,-0.2012324035167690,-0.1270405948162080,0.265532910823822,0.05471359193325040,-0.07576976716518400,0.03925555944442750
2022-11-12T02:54:00.793-07:00,-0.2063888162374500,-0.1009876877069470,0.2665116488933560,0.0448518842458725,-0.07139585167169570,0.04074561595916750
2022-11-12T02:54:00.803-07:00,-0.1861053854227070,-0.08483587950468060,0.2828346788883210,0.04625797271728520,-0.06692077219486240,0.03655815124511720
2022-11-12T02:54:00.813-07:00,-0.1542074829339980,-0.06945335865020750,0.2940660119056700,0.04865802824497220,-0.05413499474525450,0.03616714477539060
2022-11-12T02:54:00.823-07:00,-0.1210810467600820,-0.05374034494161610,0.3019804358482360,0.04890666902065280,-0.03711685538291930,0.02361166477203370
2022-11-12T02:54:00.833-07:00,-0.09179692715406420,-0.05588898435235020,0.3206033706665040,0.05185471475124360,-0.03244785219430920,0.01033592224121090
2022-11-12T02:54:00.843-07:00,-0.07996180653572080,-0.05517289042472840,0.333891749382019,0.05631649494171140,-0.04606450349092480,0.009315431118011480
2022-11-12T02:54:00.853-07:00,-0.09824679791927340,-0.02983264811336990,0.3505911231040960,0.04887101054191590,-0.06797853857278820,0.01051968336105350
2022-11-12T02:54:00.863-07:00,-0.152119055390358,0.004341267980635170,0.3603545129299160,0.03470620512962340,-0.0776306539773941,0.01677864789962770
2022-11-12T02:54:00.873-07:00,-0.1970540434122090,0.04242553934454920,0.3693344295024870,0.02737486362457280,-0.09158968180418020,0.02684980630874630
2022-11-12T02:54:00.883-07:00,-0.2293165773153310,0.06802351027727130,0.3882660269737240,0.02747517824172970,-0.08508747071027760,0.03551703691482540
2022-11-12T02:54:00.893-07:00,-0.2588363885879520,0.09290542453527450,0.4089223146438600,0.02692297101020810,-0.05823370069265370,0.03528577089309690
2022-11-12T02:54:00.903-07:00,-0.2756286263465880,0.100796066224575,0.4300267994403840,0.03182429075241090,-0.04222653061151510,0.03364741802215580
2022-11-12T02:54:00.913-07:00,-0.2822210192680360,0.1033079624176030,0.4565079510211950,0.03252004086971280,-0.0554395318031311,0.02621954679489140
2022-11-12T02:54:00.923-07:00,-0.3111781477928160,0.1182027831673620,0.489753246307373,0.03266286849975590,-0.06051835417747500,0.0152055025100708
2022-11-12T02:54:00.933-07:00,-0.3452849686145780,0.1254340708255770,0.5288537740707400,0.0393734872341156,-0.04504141956567760,0.003703296184539800
2022-11-12T02:54:00.943-07:00,-0.3694683909416200,0.109863668680191,0.5644831657409670,0.04365912079811100,-0.03940870612859730,-0.006529569625854490
2022-11-12T02:54:00.953-07:00,-0.4239822328090670,0.09048890322446820,0.6013871431350710,0.04629974067211150,-0.04187522828578950,-0.01462686061859130
2022-11-12T02:54:00.963-07:00,-0.4935581684112550,0.07503730803728100,0.626493513584137,0.0470883846282959,-0.05568569898605350,-0.01422792673110960
2022-11-12T02:54:00.973-07:00,-0.5646417140960690,0.06453433632850650,0.6601071357727050,0.04862323403358460,-0.07552473247051240,-0.01562255620956420
2022-11-12T02:54:00.983-07:00,-0.6515079736709600,0.05384473875164990,0.7140758037567140,0.04900377988815310,-0.05960544943809510,-0.01965880393981930
2022-11-12T02:54:00.993-07:00,-0.7279630303382870,0.0374537818133831,0.7638732194900510,0.03991243243217470,-0.03263923525810240,-0.02926123142242430
2022-11-12T02:54:01.004-07:00,-0.8070253729820250,0.001579370582476260,0.8195359706878660,0.02606405317783360,-0.02198401093482970,-0.02659142017364500
2022-11-12T02:54:01.014-07:00,-0.8717300295829770,-0.02397525869309900,0.8877856135368350,0.01903222501277920,-0.0310552641749382,-0.01745039224624630
2022-11-12T02:54:01.024-07:00,-0.9022969007492070,-0.03804480284452440,0.9481226801872250,0.01587815582752230,-0.03766626119613650,-0.01002824306488040
2022-11-12T02:54:01.034-07:00,-0.9264113306999210,-0.05235769599676130,0.9940153956413270,0.0126880556344986,-0.01672722399234770,-0.01347529888153080
2022-11-12T02:54:01.044-07:00,-0.9117391109466550,-0.09205108135938640,1.045891642570500,0.02957391738891600,-0.01143980026245120,-0.007988393306732180
2022-11-12T02:54:01.054-07:00,-0.8798885345458980,-0.1350283771753310,1.084786534309390,0.03981675207614900,-0.01861850917339330,-0.002286434173583980
2022-11-12T02:54:01.070-07:00,-0.8901788592338560,-0.1706471890211110,1.106087327003480,0.03995563089847570,-0.01678955554962160,3.21865081787109E-05
2022-11-12T02:54:01.086-07:00,-0.925818920135498,-0.1976098269224170,1.11768651008606,0.03642283380031590,-0.02682168781757360,0.01222401857376100
2022-11-12T02:54:01.088-07:00,-0.9634089469909670,-0.1963714212179180,1.128556370735170,0.01984389126300810,-0.0465126633644104,0.01743888854980470
2022-11-12T02:54:01.094-07:00,-1.015067338943480,-0.2027446329593660,1.146738529205320,0.003079071640968320,-0.0630580335855484,0.01632338762283330
2022-11-12T02:54:01.104-07:00,-1.059764623641970,-0.2078374624252320,1.172349452972410,0.008831202983856200,-0.07256649434566500,0.02118277549743650
2022-11-12T02:54:01.114-07:00,-1.106152892112730,-0.2232909798622130,1.175258636474610,0.03078889846801760,-0.08281347155570980,0.02490866184234620
2022-11-12T02:54:01.124-07:00,-1.156805157661440,-0.2415733337402340,1.201555013656620,0.04440724849700930,-0.07479152083396910,0.02644062042236330
2022-11-12T02:54:01.134-07:00,-1.208190560340880,-0.2627127170562740,1.249944925308230,0.05100789666175840,-0.06060972809791570,0.03631407022476200
2022-11-12T02:54:01.144-07:00,-1.233221530914310,-0.2866296470165250,1.281506538391110,0.04958806931972500,-0.06663316488265990,0.05660092830657960
2022-11-12T02:54:01.154-07:00,-1.260679483413700,-0.3061854839324950,1.303041934967040,0.04791727662086490,-0.08655104041099550,0.07874214649200440
2022-11-12T02:54:01.164-07:00,-1.342260003089910,-0.3215295076370240,1.334114551544190,0.04914925992488860,-0.09991917014122010,0.08847737312316900
2022-11-12T02:54:01.174-07:00,-1.49096691608429,-0.3033398687839510,1.340582847595220,0.05592034757137300,-0.1112253367900850,0.0890507698059082
2022-11-12T02:54:01.184-07:00,-1.686160683631900,-0.2756752967834470,1.334677577018740,0.05508209764957430,-0.1133613586425780,0.0807117223739624
2022-11-12T02:54:01.194-07:00,-1.875964403152470,-0.2409439533948900,1.342044353485110,0.05422759056091310,-0.1145700216293340,0.07613039016723630
2022-11-12T02:54:01.204-07:00,-2.023954391479490,-0.2020256072282790,1.327039361000060,0.05756469070911410,-0.1276004016399380,0.07403922080993650
2022-11-12T02:54:01.214-07:00,-2.125519514083860,-0.2009875178337100,1.301936864852910,0.05769473314285280,-0.1395860612392430,0.06520915031433110
2022-11-12T02:54:01.224-07:00,-2.181001663208010,-0.2310790717601780,1.271686911582950,0.06377694010734560,-0.1396831870079040,0.07058799266815190
2022-11-12T02:54:01.234-07:00,-2.155927181243900,-0.2441714406013490,1.25157356262207,0.06629262864589690,-0.1242879927158360,0.07774472236633300
2022-11-12T02:54:01.244-07:00,-2.079864740371700,-0.2688925564289090,1.24438202381134,0.05956745147705080,-0.0927872359752655,0.07789701223373410
2022-11-12T02:54:01.254-07:00,-1.982030749320980,-0.2928681969642640,1.259558081626890,0.0593339204788208,-0.07064318656921390,0.08461880683898930
2022-11-12T02:54:01.264-07:00,-1.895752906799320,-0.2753849029541020,1.272217392921450,0.05277882516384130,-0.06550690531730650,0.07894563674926760
2022-11-12T02:54:01.274-07:00,-1.80846893787384,-0.2495189607143400,1.29996645450592,0.03780236840248110,-0.0686703622341156,0.05947959423065190
2022-11-12T02:54:01.285-07:00,-1.741284489631650,-0.2337213605642320,1.329474329948430,0.02990104258060460,-0.06658434867858890,0.04090327024459840
2022-11-12T02:54:01.295-07:00,-1.708256244659420,-0.2278394997119900,1.344883680343630,0.03431224822998050,-0.06742295622825620,0.02950108051300050
2022-11-12T02:54:01.305-07:00,-1.753193020820620,-0.235173687338829,1.344749927520750,0.03908374905586240,-0.07714271545410160,0.02633416652679440
2022-11-12T02:54:01.315-07:00,-1.865925908088680,-0.2237537801265720,1.333420038223270,0.03413058817386630,-0.09591454267501830,0.03569602966308590
2022-11-12T02:54:01.325-07:00,-2.024614095687870,-0.2078996896743770,1.31754994392395,0.01441693305969240,-0.116781085729599,0.04973471164703370
2022-11-12T02:54:01.335-07:00,-2.185725450515750,-0.2181347459554670,1.304846405982970,-0.007695749402046200,-0.1455691158771520,0.08216512203216550
2022-11-12T02:54:01.345-07:00,-2.366171360015870,-0.2468465119600300,1.276562690734860,-0.03062567114830020,-0.172228991985321,0.1174823641777040
2022-11-12T02:54:01.355-07:00,-2.579490900039670,-0.2523046731948850,1.2397381067276,-0.05262023210525510,-0.1779982447624210,0.143695592880249
2022-11-12T02:54:01.365-07:00,-2.78914737701416,-0.217227041721344,1.212738871574400,-0.06838712096214290,-0.1698101162910460,0.152036726474762
2022-11-12T02:54:01.375-07:00,-2.973257064819340,-0.1835969090461730,1.215861439704900,-0.07556895911693570,-0.1451830863952640,0.1337992548942570
2022-11-12T02:54:01.385-07:00,-3.178848505020140,-0.2024922370910650,1.25248396396637,-0.07197672128677370,-0.1113026738166810,0.1225482225418090
2022-11-12T02:54:01.395-07:00,-3.350567102432250,-0.2499795854091640,1.280396223068240,-0.05373173952102660,-0.1094201803207400,0.1119941473007200
2022-11-12T02:54:01.405-07:00,-3.511067390441900,-0.2698626518249510,1.309472918510440,-0.05648627877235410,-0.1102226376533510,0.1025843024253850
2022-11-12T02:54:01.415-07:00,-3.668934106826780,-0.2903636693954470,1.365198731422420,-0.07386752963066100,-0.09185552597045900,0.08785229921340940
2022-11-12T02:54:01.425-07:00,-3.891632318496700,-0.3374338150024410,1.409415245056150,-0.08473685383796690,-0.07829844951629640,0.09549689292907720
2022-11-12T02:54:01.435-07:00,-4.115657329559330,-0.387076735496521,1.440194725990300,-0.08101224899291990,-0.1068222522735600,0.1171730160713200
2022-11-12T02:54:01.445-07:00,-4.344167709350590,-0.4078777134418490,1.476530790328980,-0.09955328702926640,-0.147794783115387,0.1278510093688970
2022-11-12T02:54:01.455-07:00,-4.48884391784668,-0.3760193884372710,1.531665205955510,-0.1411702334880830,-0.1661890745162960,0.1324803829193120
2022-11-12T02:54:01.465-07:00,-4.529887676239010,-0.3063973784446720,1.564805865287780,-0.1721373498439790,-0.1561093926429750,0.1271287202835080
2022-11-12T02:54:01.475-07:00,-4.535227298736570,-0.2490632385015490,1.614221334457400,-0.1760690808296200,-0.1020874977111820,0.09869414567947390
2022-11-12T02:54:01.485-07:00,-4.5067138671875,-0.2478593587875370,1.671645760536190,-0.1487452685832980,-0.04120141267776490,0.08403909206390380
2022-11-12T02:54:01.495-07:00,-4.419827938079830,-0.2725748121738430,1.744341492652890,-0.1184190809726720,-0.008839249610900880,0.0621650218963623
2022-11-12T02:54:01.505-07:00,-4.310994148254400,-0.2749418318271640,1.790462136268620,-0.1151718199253080,0.008032321929931640,0.03159022331237790
2022-11-12T02:54:01.515-07:00,-4.215068817138670,-0.2898869514465330,1.821569800376890,-0.1297701597213750,0.01891446113586430,0.01774781942367550
2022-11-12T02:54:01.525-07:00,-4.147825241088870,-0.3130755722522740,1.862374901771550,-0.1434144675731660,-0.003098070621490480,0.02305933833122250
2022-11-12T02:54:01.535-07:00,-4.050690650939940,-0.3016151785850530,1.8755202293396,-0.1656108796596530,-0.06009548902511600,0.02546331286430360
2022-11-12T02:54:01.545-07:00,-3.99727463722229,-0.2739918828010560,1.859515070915220,-0.1958726644515990,-0.1175930500030520,0.03892713785171510
2022-11-12T02:54:01.555-07:00,-3.91995906829834,-0.2179568558931350,1.838348746299740,-0.2158016264438630,-0.1597195863723760,0.05634988844394680
2022-11-12T02:54:01.570-07:00,-3.801079034805300,-0.145235002040863,1.800876617431640,-0.2262909710407260,-0.1832625865936280,0.0682472288608551
2022-11-12T02:54:01.588-07:00,-3.697450399398800,-0.05989108234643940,1.748344540596010,-0.214590847492218,-0.1411232948303220,0.07153749465942380
2022-11-12T02:54:01.589-07:00,-3.547591209411620,-0.03715936839580540,1.765009522438050,-0.1694285273551940,-0.04122352600097660,0.07391875982284550
2022-11-12T02:54:01.596-07:00,-3.199386835098270,-0.07643886655569080,1.877660989761350,-0.09989809989929200,0.0579904317855835,0.07304627448320390
2022-11-12T02:54:01.605-07:00,-2.668328285217290,-0.1275472939014440,1.997177720069890,-0.04886287450790410,0.1230403184890750,0.0619509220123291
2022-11-12T02:54:01.615-07:00,-2.156786918640140,-0.2057384848594670,2.041961193084720,-0.02560698986053470,0.1667018532752990,0.05862444639205930
2022-11-12T02:54:01.626-07:00,-1.835448503494260,-0.2554296553134920,2.065454244613650,-0.01179182529449460,0.1843348145484920,0.0734744668006897
2022-11-12T02:54:01.635-07:00,-1.590949892997740,-0.2733156979084020,2.094536542892460,-0.004575908184051510,0.149042010307312,0.08252215385437010
2022-11-12T02:54:01.645-07:00,-1.484019637107850,-0.2723511159420010,2.086461782455440,-0.007929623126983640,0.09105062484741210,0.09556186199188230
2022-11-12T02:54:01.655-07:00,-1.575242757797240,-0.2710126042366030,2.010375261306760,-0.009177148342132570,0.04953294992446900,0.1092350482940670
2022-11-12T02:54:01.665-07:00,-1.872000098228460,-0.2546423971652990,1.918126940727230,0.003581225872039800,0.005270123481750490,0.126879096031189
2022-11-12T02:54:01.676-07:00,-2.295786380767820,-0.2659187614917760,1.875702261924740,0.0331496000289917,-0.02092421054840090,0.1467369794845580
2022-11-12T02:54:01.686-07:00,-2.568474769592290,-0.2829781174659730,1.869439005851750,0.0664026141166687,-0.06197130680084230,0.1532403230667110
2022-11-12T02:54:01.696-07:00,-2.705552577972410,-0.2660127282142640,1.846922159194950,0.07711887359619140,-0.08495378494262700,0.142850399017334
2022-11-12T02:54:01.706-07:00,-2.723164319992070,-0.2648477852344510,1.790978074073790,0.08485883474349980,-0.04668515920639040,0.1328505128622060
2022-11-12T02:54:01.718-07:00,-2.595151662826540,-0.2864058315753940,1.741602540016170,0.1215216517448430,0.03389143943786620,0.1125483438372610
2022-11-12T02:54:01.734-07:00,-2.366426467895510,-0.3350421786308290,1.726543068885800,0.1741864681243900,0.1577998399734500,0.07979916781187060
2022-11-12T02:54:01.741-07:00,-2.003284931182860,-0.392483115196228,1.731842517852780,0.2178896069526670,0.2612506151199340,0.04377435892820360
2022-11-12T02:54:01.746-07:00,-1.672292828559880,-0.4722312986850740,1.70649528503418,0.2432883977890020,0.2848111987113950,0.0268021747469902
2022-11-12T02:54:01.756-07:00,-1.33950662612915,-0.544729471206665,1.664679408073430,0.2474204301834110,0.2396531701087950,0.03453302383422850
2022-11-12T02:54:01.766-07:00,-1.005688786506650,-0.5797848105430600,1.606987237930300,0.2225226163864140,0.1710879802703860,0.05451476573944090
2022-11-12T02:54:01.776-07:00,-0.7732624411582950,-0.5794138312339780,1.527168035507200,0.1738104224205020,0.1320490837097170,0.07934723794460300
2022-11-12T02:54:01.786-07:00,-0.6706923842430120,-0.5600801706314090,1.442515850067140,0.135644257068634,0.1024879813194280,0.1062575429677960
2022-11-12T02:54:01.796-07:00,-0.6597228050231930,-0.5285382270812990,1.391327261924740,0.1152881979942320,0.06496930122375490,0.1170406341552730
2022-11-12T02:54:01.806-07:00,-0.6734468936920170,-0.4698775410652160,1.355240345001220,0.1046534776687620,0.03524714708328250,0.1090823411941530
2022-11-12T02:54:01.816-07:00,-0.6948930621147160,-0.4021568298339840,1.30915892124176,0.09309977293014530,0.02734637260437010,0.09017431735992430
2022-11-12T02:54:01.826-07:00,-0.6831454634666440,-0.3353134095668790,1.270334482192990,0.09051811695098880,0.03834688663482670,0.06707502901554110
2022-11-12T02:54:01.836-07:00,-0.584837019443512,-0.2626634538173680,1.231309294700620,0.09631121158599850,0.0578237771987915,0.03787598013877870
2022-11-12T02:54:01.846-07:00,-0.4474949538707730,-0.1824563890695570,1.17258083820343,0.09433567523956300,0.0906110405921936,-0.0062875896692276
2022-11-12T02:54:01.856-07:00,-0.2706464231014250,-0.1250293105840680,1.135990619659420,0.09438562393188480,0.1277727484703060,-0.04344071447849270
2022-11-12T02:54:01.866-07:00,-0.07399313151836400,-0.0926254540681839,1.102403044700620,0.09796106815338140,0.14284747838974,-0.05012165009975430
2022-11-12T02:54:01.876-07:00,0.1036873757839200,-0.06773634999990460,1.066616296768190,0.08935940265655520,0.1357303261756900,-0.04159142076969150
2022-11-12T02:54:01.886-07:00,0.259608268737793,-0.03219673410058020,1.034666419029240,0.07647120952606200,0.117465078830719,-0.02722394466400150
2022-11-12T02:54:01.896-07:00,0.3904214203357700,-0.01213993690907960,1.004820346832280,0.06595116853713990,0.09831023216247560,-0.007192611694335940
2022-11-12T02:54:01.906-07:00,0.4967450797557830,0.0003450617659837010,0.9839203953742980,0.06216627359390260,0.08517014980316160,0.01401245594024660
2022-11-12T02:54:01.916-07:00,0.5742486715316770,0.0129452757537365,0.9505331516265870,0.06053632497787480,0.07844775915145870,0.02319955080747600
2022-11-12T02:54:01.926-07:00,0.6128831505775450,0.01218334585428240,0.9203129410743710,0.0567786693572998,0.07195824384689330,0.02480913698673250
2022-11-12T02:54:01.936-07:00,0.5862268209457400,0.01189279463142160,0.8862801194190980,0.05573832988739010,0.06837326288223270,0.03007163107395170
2022-11-12T02:54:01.947-07:00,0.5154465436935430,0.02065759152174000,0.8352307677268980,0.04872596263885500,0.05755400657653810,0.02743279188871380
2022-11-12T02:54:01.957-07:00,0.4275102913379670,0.02235322631895540,0.7877447605133060,0.04832863807678220,0.0436285138130188,0.02467894554138180
2022-11-12T02:54:01.967-07:00,0.3548696041107180,0.03508104011416440,0.7384112477302550,0.04273790121078490,0.03937727212905880,0.02396798133850100
2022-11-12T02:54:01.977-07:00,0.3054514527320860,0.05655277520418170,0.6874445080757140,0.03023940324783330,0.05231970548629760,0.007077917456626890
2022-11-12T02:54:01.987-07:00,0.2839968204498290,0.07249761372804640,0.6389446258544920,0.0206102728843689,0.07482436299324040,-0.00882565975189209
2022-11-12T02:54:01.997-07:00,0.2948257625103000,0.08478623628616330,0.595337450504303,0.01542341709136960,0.08968162536621090,-0.01485347747802730
2022-11-12T02:54:02.007-07:00,0.3221350312232970,0.09592767804861070,0.5449139475822450,0.00985032320022583,0.08679747581481930,-0.01191592961549760
2022-11-12T02:54:02.017-07:00,0.3764736354351040,0.1058772429823880,0.5024580955505370,0.003327071666717530,0.08091899752616880,-0.01156830787658690
2022-11-12T02:54:02.027-07:00,0.4582184851169590,0.1179710254073140,0.466629832983017,0.0006176233291625980,0.07744735479354860,-0.009579196572303770
2022-11-12T02:54:02.037-07:00,0.5350498557090760,0.1312210559844970,0.4299093782901760,-0.004147827625274660,0.08047851920127870,-0.00917816162109375
2022-11-12T02:54:02.047-07:00,0.6118648648262020,0.142982542514801,0.4133032262325290,-0.007339000701904300,0.07722762227058410,-0.01359213888645170
2022-11-12T02:54:02.057-07:00,0.6685156226158140,0.1532647311687470,0.3980065584182740,-0.01009142398834230,0.07139179110527040,-0.01548874378204350
2022-11-12T02:54:02.067-07:00,0.7069605588912960,0.1536037027835850,0.3737778961658480,-0.01049578189849850,0.05670329928398130,-0.01688362658023830
2022-11-12T02:54:02.077-07:00,0.727912962436676,0.1522260457277300,0.3529202938079830,-0.0141071081161499,0.03043651580810550,-0.01785470545291900
2022-11-12T02:54:02.087-07:00,0.7231802940368650,0.1483524739742280,0.3346209228038790,-0.01982963085174560,0.01148802042007450,-0.02057194709777830
2022-11-12T02:54:02.097-07:00,0.6968847513198850,0.1445654630661010,0.3241216838359830,-0.02438569068908690,0.0043526291847229,-0.02038098871707920
2022-11-12T02:54:02.107-07:00,0.6786656975746160,0.1469434648752210,0.3251541554927830,-0.02649962902069090,0.004708439111709600,-0.01952994614839550
2022-11-12T02:54:02.117-07:00,0.6607894897460940,0.1415098160505300,0.3407014310359960,-0.02617913484573360,0.005537092685699460,-0.02100528031587600
2022-11-12T02:54:02.127-07:00,0.6164717674255370,0.125428706407547,0.344545990228653,-0.01937085390090940,0.00949522852897644,-0.01341748982667920
2022-11-12T02:54:02.137-07:00,0.5945946574211120,0.1018128618597980,0.3490264713764190,-0.009979367256164550,0.001153141260147100,-0.005345456302165990
2022-11-12T02:54:02.147-07:00,0.5380561947822570,0.07697869092226030,0.3497050702571870,-0.009811818599700930,-0.002421796321868900,-0.001623518764972690
2022-11-12T02:54:02.157-07:00,0.4643311202526090,0.05986734479665760,0.3439992368221280,-0.01447921991348270,-0.009903758764266970,-0.001164689660072330
2022-11-12T02:54:02.167-07:00,0.406412810087204,0.05387300252914430,0.3430311977863310,-0.02369946241378780,-0.0202261209487915,-0.001065738499164580
2022-11-12T02:54:02.177-07:00,0.3438527584075930,0.03458106145262720,0.3310749232769010,-0.02668511867523190,-0.02465400099754330,-0.002342581748962400
2022-11-12T02:54:02.187-07:00,0.3087005913257600,0.0283929742872715,0.3125510513782500,-0.02447104454040530,-0.0244184136390686,0.004343271255493160
2022-11-12T02:54:02.197-07:00,0.2915650010108950,0.03085480257868770,0.2686642706394200,-0.02373099327087400,-0.03234457969665530,0.005024902522563930
2022-11-12T02:54:02.207-07:00,0.2866108119487760,0.02290919236838820,0.2469776123762130,-0.02109181880950930,-0.04200661182403560,0.001266837120056150
2022-11-12T02:54:02.217-07:00,0.2715522348880770,0.0231920201331377,0.2470433861017230,-0.01907116174697880,-0.03590062260627750,-4.16040420532227E-05
2022-11-12T02:54:02.228-07:00,0.2307239919900890,0.02794373407959940,0.2331377118825910,-0.01391983032226560,-0.02359968423843380,-0.007210381329059600
2022-11-12T02:54:02.238-07:00,0.193732425570488,0.01466760970652100,0.2195364087820050,-0.001396059989929200,-0.01727771759033200,-0.004063256084918980
2022-11-12T02:54:02.248-07:00,0.1727544367313390,-0.001629871665500100,0.2130729258060460,0.01113021373748780,-0.01786071062088010,-0.003469116985797880
2022-11-12T02:54:02.258-07:00,0.1032107770442960,-0.01544129103422170,0.2048602700233460,0.01677179336547850,-0.01843932271003720,-0.001715183258056640
2022-11-12T02:54:02.268-07:00,0.02536681108176710,-0.01428597886115310,0.1950062960386280,0.01758468151092530,-0.02350649237632750,-0.001451253890991210
2022-11-12T02:54:02.278-07:00,-0.05510938912630080,-0.01301192305982110,0.2010759115219120,0.01278060674667360,-0.02455985546112060,-0.00123143196105957
2022-11-12T02:54:02.288-07:00,-0.1177901774644850,-0.01169515587389470,0.2092004120349880,0.009818553924560550,-0.008377701044082640,0.001265756785869600
2022-11-12T02:54:02.298-07:00,-0.1265839338302610,-0.009512695483863350,0.2174924314022060,0.009827256202697750,0.006264954805374150,0.002105943858623510
2022-11-12T02:54:02.308-07:00,-0.116577573120594,-0.0005544207524508240,0.2157424688339230,0.01032519340515140,0.01520454883575440,-0.0007853507995605470
2022-11-12T02:54:02.318-07:00,-0.07641816884279250,0.002303683664649730,0.2228813469409940,0.009068667888641360,0.02329406142234800,-0.008272774517536160
2022-11-12T02:54:02.328-07:00,-0.026999456807971,0.01172085385769610,0.2217894494533540,0.00710761547088623,0.03090968728065490,-0.01922894269227980
2022-11-12T02:54:02.338-07:00,0.02033982798457150,0.02037559635937210,0.2226781398057940,0.004977107048034670,0.03779682517051700,-0.02658224850893020
2022-11-12T02:54:02.348-07:00,0.07230718433856960,0.03874205052852630,0.2149901390075680,-0.0004196763038635250,0.04360342025756840,-0.03325701504945760
2022-11-12T02:54:02.358-07:00,0.1031876057386400,0.04984050989151000,0.2044823616743090,-0.002616822719573980,0.04516762495040890,-0.03526224195957180
2022-11-12T02:54:02.368-07:00,0.1259416192770000,0.05535515025258060,0.186685249209404,-0.001076459884643560,0.03787240386009220,-0.03374791890382770
2022-11-12T02:54:02.378-07:00,0.1248539835214620,0.06392147392034530,0.1648923456668850,-0.001050114631652830,0.02662968635559080,-0.03289699554443360
2022-11-12T02:54:02.388-07:00,0.113763652741909,0.06647344678640370,0.1463761776685720,-0.002902626991271970,0.01652777194976810,-0.029823899269104
2022-11-12T02:54:02.398-07:00,0.0739336833357811,0.0652204304933548,0.1295500546693800,-0.00657808780670166,0.01480361819267270,-0.031096450984478
2022-11-12T02:54:02.408-07:00,0.02775630354881290,0.06096366792917250,0.1129745468497280,-0.005540013313293460,0.02053317427635190,-0.03415608406066900
2022-11-12T02:54:02.418-07:00,-0.00230998732149601,0.04815705865621570,0.1062287613749500,-0.003274440765380860,0.02573561668396000,-0.02904952317476270
2022-11-12T02:54:02.428-07:00,-0.03423130512237550,0.028465511277318,0.08909078687429430,0.002672195434570310,0.0259706974029541,-0.02408158779144290
2022-11-12T02:54:02.438-07:00,-0.0671415850520134,0.01567115262150760,0.08407659083604810,0.001958966255187990,0.02614080905914310,-0.01744461804628370
2022-11-12T02:54:02.448-07:00,-0.08819886296987530,-0.003869856474921110,0.07411129772663120,0.002596437931060790,0.02660158276557920,-0.01516628265380860
2022-11-12T02:54:02.458-07:00,-0.1073153018951420,-0.01748473569750790,0.05968708917498590,0.002562463283538820,0.02809262275695800,-0.01566744595766070
2022-11-12T02:54:02.468-07:00,-0.1294575780630110,-0.02923863008618360,0.03777486830949780,0.005192220211029050,0.02923005819320680,-0.01631689071655270
2022-11-12T02:54:02.478-07:00,-0.1414460688829420,-0.04070513695478440,0.01870530284941200,0.0071144700050354,0.02288633584976200,-0.01791931688785550
2022-11-12T02:54:02.488-07:00,-0.1509823501110080,-0.04676325991749760,0.007656646426767110,0.007375180721282960,0.0184517502784729,-0.02135909348726270
2022-11-12T02:54:02.498-07:00,-0.1566205322742460,-0.04545644670724870,-0.01596585847437380,0.004997134208679200,0.02069664001464840,-0.02395809441804890
2022-11-12T02:54:02.508-07:00,-0.146775558590889,-0.04479551687836650,-0.02964917942881580,0.002340734004974370,0.01980310678482060,-0.02335024625062940
2022-11-12T02:54:02.519-07:00,-0.1439845561981200,-0.03940501436591150,-0.02609652280807500,-0.001127421855926510,0.02269670367240910,-0.01982700824737550
2022-11-12T02:54:02.529-07:00,-0.1420278400182720,-0.02149615436792370,-0.01475145667791370,-0.004494965076446530,0.03079921007156370,-0.02030397951602940
2022-11-12T02:54:02.539-07:00,-0.1582680642604830,-0.01410348527133470,-0.01398366689682010,-0.004056394100189210,0.037596195936203,-0.02288581430912020
2022-11-12T02:54:02.549-07:00,-0.1884391903877260,-0.0313829742372036,-0.04501215741038320,0.0004628300666809080,0.03800824284553530,-0.0242776945233345
2022-11-12T02:54:02.559-07:00,-0.2182138562202450,-0.04243775457143780,-0.1013761013746260,0.003487586975097660,0.02335438132286070,-0.02219069749116900
2022-11-12T02:54:02.569-07:00,-0.2348941266536710,-0.07220993191003800,-0.1378715187311170,0.006441116333007810,0.006206780672073360,-0.01178288459777830
2022-11-12T02:54:02.579-07:00,-0.2477558702230450,-0.1113038063049320,-0.1504765301942830,0.00402909517288208,0.003133386373519900,0.0008456632494926450
2022-11-12T02:54:02.589-07:00,-0.2743794322013860,-0.1350440829992290,-0.179877296090126,-0.0003813505172729490,0.02411475777626040,0.004281871020793920
2022-11-12T02:54:02.599-07:00,-0.3435041606426240,-0.1716705411672590,-0.198801189661026,0.0009430050849914550,0.03888410329818730,-6.02081418037415E-05
2022-11-12T02:54:02.609-07:00,-0.4221693873405460,-0.2113870531320570,-0.2012931108474730,0.002416014671325680,0.02378609776496890,-0.003473646938800810
2022-11-12T02:54:02.619-07:00,-0.5560808777809140,-0.2379555553197860,-0.2491189539432530,-0.003065168857574460,-0.009712427854537960,-0.02391387522220610
2022-11-12T02:54:02.629-07:00,-0.8213157653808590,-0.2405486702919010,-0.3405450284481050,-0.01713258028030400,-0.02227485179901120,-0.0596771314740181
2022-11-12T02:54:02.639-07:00,-1.139044761657720,-0.2454733848571780,-0.4639923870563510,-0.02688848972320560,-0.006056219339370730,-0.08251453191041950
2022-11-12T02:54:02.649-07:00,-1.385750532150270,-0.2625502943992620,-0.5984258055686950,-0.02546799182891850,0.05490723252296450,-0.08348952978849410
2022-11-12T02:54:02.659-07:00,-1.572466015815740,-0.2594122886657720,-0.7372031807899480,-0.02582049369812010,0.1799838542938230,-0.09654784947633740
2022-11-12T02:54:02.669-07:00,-1.500977039337160,-0.3339274525642400,-0.8413732647895810,-0.02670705318450930,0.2742935419082640,-0.08335375040769580
2022-11-12T02:54:02.679-07:00,-1.424058794975280,-0.4967030882835390,-1.114321708679200,-0.01918387413024900,0.320228099822998,0.01206564903259280
2022-11-12T02:54:02.689-07:00,-1.433663010597230,-0.6788417100906370,-1.561951160430910,-0.02642953395843510,0.3491957485675810,0.08647049963474270
2022-11-12T02:54:02.699-07:00,-1.154306173324590,-0.8221309781074520,-2.066699743270870,-0.03298795223236080,0.3851210176944730,0.1210740879178050
2022-11-12T02:54:02.709-07:00,-0.6536428928375240,-0.9399852752685550,-2.635562658309940,-0.03637993335723880,0.5433136820793150,0.1319376230239870
2022-11-12T02:54:02.719-07:00,-0.4604095220565800,-1.054354548454290,-3.063058376312260,-0.01521432399749760,0.886723518371582,0.08951675891876220
2022-11-12T02:54:02.729-07:00,-0.2857013642787930,-0.9355777502059940,-3.272212028503420,0.04616999626159670,1.117193460464480,0.03470014780759810
2022-11-12T02:54:02.739-07:00,-0.09246265143156050,-0.6181896924972530,-3.749499797821050,0.0945853590965271,1.108040809631350,0.01617980003356930
2022-11-12T02:54:02.749-07:00,-0.03831858932971950,-0.1806361824274060,-4.341939926147460,0.154778003692627,1.105797052383420,-0.02565277367830280
2022-11-12T02:54:02.759-07:00,0.1117896884679790,0.3907759487628940,-4.85057544708252,0.2650130391120910,1.19472336769104,-0.06713806837797170
2022-11-12T02:54:02.769-07:00,0.5655845403671270,0.9354997277259830,-5.282081604003910,0.3737151622772220,1.286242961883550,0.02219761162996290
2022-11-12T02:54:02.779-07:00,1.10319709777832,1.212845087051390,-5.654000282287600,0.4763969779014590,1.384646654129030,0.209675669670105
2022-11-12T02:54:02.789-07:00,1.654431104660030,1.325777411460880,-6.083660125732420,0.6187015175819400,1.363555788993840,0.3650274276733400
2022-11-12T02:54:02.799-07:00,1.982993602752690,1.235637903213500,-6.566149234771730,0.7642028331756590,1.259219169616700,0.4794323444366460
2022-11-12T02:54:02.809-07:00,2.088309526443480,1.047058463096620,-6.899389743804930,0.8920825123786930,1.195384383201600,0.5293335914611820
2022-11-12T02:54:02.819-07:00,1.915716409683230,0.9489140510559080,-7.216192245483400,0.9717665314674380,1.128465533256530,0.5250135660171510
2022-11-12T02:54:02.830-07:00,1.461377620697020,0.8609113097190860,-7.408361911773680,1.012863755226140,1.07613468170166,0.5162301063537600
2022-11-12T02:54:02.840-07:00,0.8831220269203190,0.7963562607765200,-7.611583232879640,1.063659429550170,0.9568140506744390,0.4767107963562010
2022-11-12T02:54:02.850-07:00,0.3237557709217070,0.9027241468429570,-7.880190372467040,1.060685396194460,0.6986194849014280,0.4824151992797850
2022-11-12T02:54:02.860-07:00,-0.03400343656539920,0.999975860118866,-8.000128746032720,0.9584657549858090,0.4897761940956120,0.5196268558502200
2022-11-12T02:54:02.870-07:00,-0.2152614742517470,1.206702470779420,-7.936741828918460,0.8233282566070560,0.2575664520263670,0.5359252691268920
2022-11-12T02:54:02.880-07:00,0.1034320890903470,1.429436802864080,-7.560815334320070,0.7034887671470640,0.02571368217468260,0.3739001750946050
2022-11-12T02:54:02.890-07:00,0.7159983515739440,1.441350936889650,-7.17827320098877,0.6609514355659490,-0.2267653942108150,0.180970311164856
2022-11-12T02:54:02.900-07:00,1.241457104682920,1.370335817337040,-6.780635356903080,0.6820030808448790,-0.5280997753143310,0.06372678279876710
2022-11-12T02:54:02.910-07:00,1.640716791152950,1.290476202964780,-6.275819778442380,0.7168084979057310,-0.8132836818695070,0.009526848793029790
2022-11-12T02:54:02.920-07:00,1.544380307197570,1.146552324295040,-5.7595534324646,0.766968846321106,-1.067341804504400,0.02485036849975590
2022-11-12T02:54:02.930-07:00,1.074012994766240,0.9597114324569700,-5.147772312164310,0.8536691665649410,-1.248966217041020,0.0163158793002367
2022-11-12T02:54:02.940-07:00,0.4191308319568630,0.7358705997467040,-4.476085662841800,0.9394477605819700,-1.460733890533450,-0.06418710947036740
2022-11-12T02:54:02.950-07:00,-0.2928850054740910,0.6225555539131170,-3.903168439865110,0.940610408782959,-1.647388339042660,-0.125432014465332
2022-11-12T02:54:02.960-07:00,-0.7291589379310610,0.5865547060966490,-3.249165534973150,0.83857661485672,-1.584095597267150,-0.1897245049476620
2022-11-12T02:54:02.970-07:00,-0.8343235850334170,0.5293380618095400,-2.555950164794920,0.7633612155914310,-1.318359375,-0.2506097555160520
2022-11-12T02:54:02.980-07:00,-0.7049869298934940,0.4729775786399840,-2.020394325256350,0.7585809826850890,-1.058977484703060,-0.2780214548110960
2022-11-12T02:54:02.990-07:00,-0.4062208831310270,0.429562896490097,-1.593461632728580,0.7655470371246340,-0.8530926108360290,-0.2690281867980960
2022-11-12T02:54:03.000-07:00,-0.1465938240289690,0.4052287936210630,-1.253690481185910,0.7341954708099370,-0.6589053273200990,-0.2078280448913570
2022-11-12T02:54:03.010-07:00,0.01979191787540910,0.4135895669460300,-0.9112481474876400,0.6631606817245480,-0.504665732383728,-0.1576788425445560
2022-11-12T02:54:03.020-07:00,0.04741955548524860,0.4024865627288820,-0.6620215773582460,0.5732991099357610,-0.4041298031806950,-0.1290630102157590
2022-11-12T02:54:03.030-07:00,0.01003452949225900,0.378675639629364,-0.4982246458530430,0.47781702876091,-0.3479503989219670,-0.1086235642433170
2022-11-12T02:54:03.040-07:00,-0.130924180150032,0.3443996906280520,-0.360077977180481,0.373982846736908,-0.280210018157959,-0.09134054183959960
2022-11-12T02:54:03.050-07:00,-0.151197075843811,0.3218161761760710,-0.1792589128017430,0.2644104063510900,-0.2298840880393980,-0.1200599670410160
2022-11-12T02:54:03.060-07:00,-0.08405611664056780,0.3066984713077550,-0.06135571002960210,0.1501752138137820,-0.2014960646629330,-0.152624249458313
2022-11-12T02:54:03.070-07:00,-0.004956837743520740,0.3235233128070830,0.01439923793077470,0.05334800481796270,-0.1510223746299740,-0.1843221187591550
2022-11-12T02:54:03.080-07:00,0.04770158231258390,0.3424280285835270,0.08767238259315490,0.0008984208106994630,-0.09792852401733400,-0.1841320395469670
2022-11-12T02:54:03.090-07:00,0.0878303200006485,0.3159852623939510,0.1070002764463430,-0.01596370339393620,-0.08614170551300050,-0.1452615261077880
2022-11-12T02:54:03.100-07:00,0.05946366116404530,0.2865160405635830,0.07337254285812380,-0.02819544076919560,-0.09116905927658080,-0.09705686569213870
2022-11-12T02:54:03.111-07:00,0.05820591747760770,0.2515183389186860,0.08350720256567000,-0.03823250532150270,-0.04903072118759160,-0.06571239233016970
2022-11-12T02:54:03.121-07:00,0.1187584772706030,0.1932201385498050,0.1084788665175440,-0.02056831121444700,-0.003444194793701170,-0.04377174377441410
2022-11-12T02:54:03.131-07:00,0.08375784754753110,0.1060719564557080,0.08837439119815830,0.004502475261688230,0.01167023181915280,-0.008976820856332780
2022-11-12T02:54:03.141-07:00,-0.003038296476006510,0.04756896570324900,0.06331191956996920,0.02891820669174190,-0.009033203125,0.007410585880279540
2022-11-12T02:54:03.151-07:00,-0.104922853410244,0.02145480737090110,0.01461761631071570,0.02661222219467160,-0.0347217321395874,-0.0001192092895507810
2022-11-12T02:54:03.161-07:00,-0.1442620009183880,0.009419450536370280,-0.005876206327229740,0.007749855518341060,-0.009034991264343260,-0.0009261369705200200
2022-11-12T02:54:03.171-07:00,-0.08528297394514080,0.03032593056559560,-0.008515665307641030,-0.006293296813964840,0.02029865980148320,-0.01121919974684720
2022-11-12T02:54:03.181-07:00,0.02101737074553970,0.06980649381875990,-0.01659676060080530,-0.01786532998085020,0.006307363510131840,-0.01285707578063010
2022-11-12T02:54:03.191-07:00,0.1361969858407970,0.09595204144716260,0.006478996481746440,-0.02272927761077880,-0.005532324314117430,0.01068240404129030
2022-11-12T02:54:03.201-07:00,0.2057598233222960,0.1250545382499700,0.01823259145021440,-0.02295315265655520,0.002684533596038820,0.02942186966538430
2022-11-12T02:54:03.211-07:00,0.2103585004806520,0.1557536572217940,0.01002073474228380,-0.0241437554359436,-0.02885115146636960,0.03775632753968240
2022-11-12T02:54:03.221-07:00,0.2073089182376860,0.1590815484523770,0.02590329572558400,-0.02591562271118160,-0.05226856470108030,0.03122676163911820
2022-11-12T02:54:03.231-07:00,0.1366661638021470,0.1467500478029250,0.02965249121189120,-0.01972883939743040,-0.0848839282989502,0.01497459784150120
2022-11-12T02:54:03.241-07:00,-0.01326526887714860,0.1331013441085820,0.03885850682854650,-0.009239792823791500,-0.1018972396850590,0.007756713777780530
2022-11-12T02:54:03.251-07:00,-0.1600451618433000,0.1074705868959430,0.05408539995551110,0.001795053482055660,-0.09922206401824950,-0.005993731319904330
2022-11-12T02:54:03.261-07:00,-0.248055174946785,0.07854093611240390,0.01628235727548600,0.01196274161338810,-0.0985979437828064,-0.01287389546632770
2022-11-12T02:54:03.271-07:00,-0.2745462954044340,0.05583362281322480,-0.001977604813873770,0.00714188814163208,-0.07864338159561160,-0.01594072580337520
2022-11-12T02:54:03.281-07:00,-0.1955122053623200,0.03915504366159440,0.02313094399869440,0.00638115406036377,-0.02254354953765870,-0.02718162536621090
2022-11-12T02:54:03.291-07:00,-0.04990856721997260,0.01203304342925550,0.02807457000017170,0.01303762197494510,0.0214388370513916,-0.03656011819839480
2022-11-12T02:54:03.301-07:00,0.09006797522306440,-0.01598740555346010,0.03038912266492840,0.0210387110710144,0.02653628587722780,-0.03272503241896630
2022-11-12T02:54:03.311-07:00,0.1636462658643720,-0.0363093875348568,0.03484991565346720,0.02797701954841610,0.02231967449188230,-0.01924370974302290
2022-11-12T02:54:03.321-07:00,0.1873097866773610,-0.04890827089548110,0.03926916792988780,0.02499222755432130,0.01365065574646000,-0.006187669932842260
2022-11-12T02:54:03.331-07:00,0.1778108179569240,-0.03953500837087630,0.03624754399061200,0.0178648829460144,0.003213703632354740,0.002736747264862060
2022-11-12T02:54:03.341-07:00,0.1021895557641980,-0.02465805970132350,0.01765228807926180,0.007209956645965580,-0.008192598819732670,0.009955409914255140
2022-11-12T02:54:03.351-07:00,-0.009016860276460650,0.002027080859988930,0.01851009204983710,0.001857638359069820,-0.01632475852966310,0.00318627804517746
2022-11-12T02:54:03.361-07:00,-0.1279506981372830,0.03299351781606670,0.02700318023562430,0.001604467630386350,-0.01895421743392940,-0.01858281344175340
2022-11-12T02:54:03.371-07:00,-0.20048987865448,0.04802999272942540,0.02118896692991260,0.002212226390838620,-0.02437174320220950,-0.02543121203780170
2022-11-12T02:54:03.382-07:00,-0.1955400258302690,0.05587370321154590,0.01830529607832430,-0.001030087471008300,-0.02424913644790650,-0.0255657434463501
2022-11-12T02:54:03.391-07:00,-0.05687952041625980,0.05562885478138920,0.02118443883955480,-0.00345611572265625,0.01021504402160650,-0.02828561514616010
2022-11-12T02:54:03.401-07:00,0.1098663210868840,0.02594739384949210,0.02327289059758190,0.005805373191833500,0.04905581474304200,-0.02882754430174830
2022-11-12T02:54:03.411-07:00,0.2090521901845930,0.01552281621843580,0.0318908803164959,0.01667442917823790,0.0500483512878418,-0.02538574486970900
2022-11-12T02:54:03.422-07:00,0.2203338742256170,0.02928496524691580,0.0316874161362648,0.01114392280578610,0.03037601709365850,-0.02946984767913820
2022-11-12T02:54:03.432-07:00,0.1645303517580030,0.03581174463033680,0.02940934523940090,0.004904210567474370,0.02046048641204830,-0.03001642227172850
2022-11-12T02:54:03.442-07:00,0.03890053182840350,0.03803015500307080,0.01535478048026560,0.003713905811309810,0.002339959144592290,-0.03376413136720660
2022-11-12T02:54:03.452-07:00,-0.05183486640453340,0.05768551677465440,0.003142854664474730,0.002737671136856080,-0.02420681715011600,-0.04280286654829980
2022-11-12T02:54:03.462-07:00,-0.09367046505212780,0.059017363935709,-0.004468459170311690,-0.003541648387908940,-0.009394228458404540,-0.05152039974927900
2022-11-12T02:54:03.472-07:00,-0.005083203315734860,0.04575149342417720,0.008374102413654330,0.007709026336669920,0.02572184801101690,-0.0510895848274231
2022-11-12T02:54:03.482-07:00,0.1116082668304440,0.0151528362184763,0.002249897457659250,0.01616883277893070,0.03703570365905760,-0.0434839129447937
2022-11-12T02:54:03.492-07:00,0.2005252838134770,-0.02025169134140020,-0.003664450952783230,0.02181535959243770,0.03135097026824950,-0.03268564492464070
2022-11-12T02:54:03.502-07:00,0.2401339411735540,-0.04985006526112560,-0.003312913700938230,0.0233801007270813,0.003036081790924070,-0.01870232820510860
2022-11-12T02:54:03.512-07:00,0.2058882266283040,-0.05602660030126570,0.001915670465677980,0.01531720161437990,-0.01917660236358640,-0.0108986496925354
2022-11-12T02:54:03.522-07:00,0.1295335292816160,-0.04446421936154370,0.01485144346952440,0.0007872581481933590,-0.02016252279281620,-0.01975071057677270
2022-11-12T02:54:03.532-07:00,0.02706757560372350,-0.04800459370017050,0.01793538220226770,0.0004927515983581540,-0.03996139764785770,-0.02290081977844240
2022-11-12T02:54:03.542-07:00,-0.07269869744777680,-0.03889897838234900,0.02237673662602900,0.01042866706848150,-0.06989240646362310,-0.02005851268768310
2022-11-12T02:54:03.552-07:00,-0.1376113146543500,-0.0403619185090065,0.03671200200915340,0.01677227020263670,-0.0667722225189209,-0.02576500177383420
2022-11-12T02:54:03.562-07:00,-0.1512259393930440,-0.04637666791677480,0.0516723059117794,0.02940556406974790,-0.05800014734268190,-0.02071559429168700
2022-11-12T02:54:03.572-07:00,-0.1207036748528480,-0.05506739392876630,0.07322447001934050,0.03917902708053590,-0.05229151248931890,-0.02043139934539800
2022-11-12T02:54:03.582-07:00,-0.04577857255935670,-0.05023935064673420,0.1060519218444820,0.0435127317905426,-0.03593921661376950,-0.02619783952832220
2022-11-12T02:54:03.592-07:00,0.02524597384035590,-0.04181034862995150,0.1224956139922140,0.04182332754135130,-0.03512418270111080,-0.03129512071609500
2022-11-12T02:54:03.602-07:00,0.06827200204133990,-0.03900763764977460,0.1559819281101230,0.04231801629066470,-0.03665238618850710,-0.02792273834347730
2022-11-12T02:54:03.612-07:00,0.08255124092102050,-0.04304568842053410,0.1896368414163590,0.05154579877853390,-0.05109918117523190,-0.024627685546875
2022-11-12T02:54:03.622-07:00,0.05631643906235700,-0.0519864521920681,0.2206916958093640,0.05706414580345150,-0.07247549295425420,-0.02032488211989400
2022-11-12T02:54:03.632-07:00,0.03351295739412310,-0.06285198777914050,0.2676751911640170,0.06060171127319340,-0.08429455757141110,-0.02957069873809810
2022-11-12T02:54:03.642-07:00,0.03274437040090560,-0.07759178429842000,0.3108775019645690,0.05990990996360780,-0.09388530254364010,-0.03670097142457960
2022-11-12T02:54:03.652-07:00,0.05236354470252990,-0.1040986925363540,0.3706724047660830,0.06570535898208620,-0.09137576818466190,-0.03939461708068850
2022-11-12T02:54:03.662-07:00,0.1222062706947330,-0.1203061565756800,0.4459469020366670,0.0739307701587677,-0.08614403009414670,-0.05789614468812940
2022-11-12T02:54:03.672-07:00,0.2900403141975400,-0.1292189955711370,0.5259953737258910,0.08025896549224850,-0.09562993049621580,-0.07997352629899980
2022-11-12T02:54:03.682-07:00,0.5450196266174320,-0.1529152691364290,0.6265089511871340,0.08620381355285650,-0.1090415120124820,-0.0992281436920166
2022-11-12T02:54:03.692-07:00,0.8392812013626100,-0.1957789361476900,0.7494298219680790,0.09460851550102230,-0.131466269493103,-0.1081155464053150
2022-11-12T02:54:03.702-07:00,1.129186987876890,-0.2525785863399510,0.8908814787864690,0.107684314250946,-0.1792980432510380,-0.09377587586641310
2022-11-12T02:54:03.712-07:00,1.353128552436830,-0.3011634349823000,1.06165874004364,0.1156615912914280,-0.2259892821311950,-0.0788608118891716
2022-11-12T02:54:03.723-07:00,1.444242715835570,-0.3241393268108370,1.248626828193670,0.120887964963913,-0.2708917260169980,-0.07007257640361790
2022-11-12T02:54:03.733-07:00,1.295796990394590,-0.3323622643947600,1.39554226398468,0.126516580581665,-0.3301821947097780,-0.05074095726013180
2022-11-12T02:54:03.742-07:00,0.868430495262146,-0.3122977614402770,1.513525128364560,0.1369084715843200,-0.3866018056869510,-0.01411627978086470
2022-11-12T02:54:03.753-07:00,0.2496482133865360,-0.2723290920257570,1.642604470252990,0.1518836617469790,-0.4104991555213930,0.01695924997329710
2022-11-12T02:54:03.763-07:00,-0.3586233556270600,-0.2668246030807500,1.796852350234990,0.1710128784179690,-0.4013871550560000,0.03397310525178910
2022-11-12T02:54:03.773-07:00,-0.7389314770698550,-0.2502936124801640,1.919058203697210,0.1812716722488400,-0.3931498527526860,0.03407265990972520
2022-11-12T02:54:03.783-07:00,-0.8516031503677370,-0.1868789494037630,2.016532897949220,0.165239155292511,-0.3563493490219120,0.01127386838197710
2022-11-12T02:54:03.793-07:00,-0.7129124999046330,-0.1574123203754430,2.136818647384640,0.1543322503566740,-0.2637102007865910,-0.002935044467449190
2022-11-12T02:54:03.803-07:00,-0.2921607494354250,-0.1753567010164260,2.273614168167110,0.1660458147525790,-0.1859673261642460,-0.008291475474834440
2022-11-12T02:54:03.813-07:00,0.2776572406291960,-0.1704014092683790,2.376952648162840,0.1698600351810460,-0.1574112176895140,-0.02485669404268270
2022-11-12T02:54:03.823-07:00,0.8053040504455570,-0.118093729019165,2.474814891815190,0.1539881676435470,-0.1227807402610780,-0.04497390985488890
2022-11-12T02:54:03.833-07:00,1.144745707511900,-0.1005125492811200,2.598288297653200,0.1530572921037670,-0.07868361473083500,-0.04047077149152760
2022-11-12T02:54:03.843-07:00,1.151017427444460,-0.1327317357063290,2.663388252258300,0.1611748188734060,-0.08420848846435550,-0.009465202689170840
2022-11-12T02:54:03.853-07:00,0.8314712047576900,-0.1522695422172550,2.691538333892820,0.1528716832399370,-0.1425052881240850,0.02197445929050450
2022-11-12T02:54:03.863-07:00,0.2961201369762420,-0.1579998731613160,2.717718362808230,0.1202124282717710,-0.2001329660415650,0.04492533206939700
2022-11-12T02:54:03.873-07:00,-0.3244084715843200,-0.1737989783287050,2.725185871124270,0.08239477872848510,-0.2455424666404720,0.06444233655929570
2022-11-12T02:54:03.883-07:00,-0.8968035578727720,-0.1753398776054380,2.713044404983520,0.0540989562869072,-0.2851433753967290,0.07334299385547640
2022-11-12T02:54:03.893-07:00,-1.29195773601532,-0.1559790372848510,2.737761497497560,0.04009358584880830,-0.2897160649299620,0.0655938982963562
2022-11-12T02:54:03.903-07:00,-1.196139931678770,-0.06284961849451070,2.824299335479740,0.03837201744318010,-0.2482324838638310,0.03409881889820100
2022-11-12T02:54:03.913-07:00,-0.7184176445007320,-0.04358178004622460,2.937885999679570,0.02906318567693230,-0.1265639066696170,-0.003377608954906460
2022-11-12T02:54:03.923-07:00,-0.01464268751442430,-0.06213868781924250,3.031044006347660,0.05166992917656900,0.01152956485748290,-0.0163714811205864
2022-11-12T02:54:03.933-07:00,0.6101171374320980,-0.07626339048147200,3.131812572479250,0.08934777230024340,0.1167628765106200,-0.03165642917156220
2022-11-12T02:54:03.943-07:00,0.9952107667922970,-0.1267361640930180,3.226438760757450,0.1305062472820280,0.1905864477157590,-0.007411539554595950
2022-11-12T02:54:03.953-07:00,1.175893545150760,-0.1854273080825810,3.286484718322750,0.148339718580246,0.1721433401107790,0.02617765963077550
2022-11-12T02:54:03.963-07:00,0.9667555689811710,-0.229460284113884,3.230902433395390,0.115590825676918,0.09148144721984860,0.07338549196720120
2022-11-12T02:54:03.973-07:00,0.3335936665534970,-0.1820238828659060,3.136260747909550,0.05989451706409450,-0.0156559944152832,0.1170289665460590
2022-11-12T02:54:03.983-07:00,-0.5738811492919920,-0.08504913002252580,3.027069807052610,0.01017284393310550,-0.1386981606483460,0.1340662389993670
2022-11-12T02:54:03.993-07:00,-1.515353083610540,0.01853581704199310,2.928704500198360,-0.01515856385231020,-0.2269889712333680,0.1321160793304440
2022-11-12T02:54:04.004-07:00,-2.193879127502440,0.1521063894033430,2.900542974472050,-0.008699536323547360,-0.2504000663757320,0.1196705177426340
2022-11-12T02:54:04.013-07:00,-2.106527090072630,0.3793807923793790,3.003443717956540,-0.005229353904724120,-0.1927968263626100,0.08037471771240230
2022-11-12T02:54:04.023-07:00,-1.445688128471380,0.481311708688736,3.107539415359500,-0.02117517590522770,-0.005790233612060550,0.05176030844450000
2022-11-12T02:54:04.034-07:00,-0.579084038734436,0.4603403210639950,3.176487684249880,0.007913678884506230,0.200570821762085,0.0159105658531189
2022-11-12T02:54:04.044-07:00,0.03915812820196150,0.3741010427474980,3.241662979125980,0.09212249517440800,0.3665079474449160,-0.003735005855560300
2022-11-12T02:54:04.054-07:00,0.4392188787460330,0.2840937674045560,3.347967624664310,0.1995090842247010,0.4399775862693790,0.009219285100698470
2022-11-12T02:54:04.064-07:00,0.6836400628089910,0.2228477150201800,3.379938364028930,0.2273910641670230,0.402093768119812,0.02528160810470580
2022-11-12T02:54:04.074-07:00,0.7207563519477840,0.2155287712812420,3.31259298324585,0.1571295857429500,0.3115233182907100,0.05489218235015870
2022-11-12T02:54:04.084-07:00,0.5585234761238100,0.3162783086299900,3.229573488235470,0.05124157667160030,0.2129008769989010,0.08980649709701540
2022-11-12T02:54:04.094-07:00,0.2490352243185040,0.4627403318881990,3.119072675704960,-0.02958381175994870,0.1270002126693730,0.1214711666107180
2022-11-12T02:54:04.104-07:00,-0.1950649917125700,0.5335830450057980,2.949901580810550,-0.04518008232116700,0.03265821933746340,0.157827615737915
2022-11-12T02:54:04.114-07:00,-0.7961277365684510,0.5673363208770750,2.773704051971440,-0.01563006639480590,-0.03657698631286620,0.1808549165725710
2022-11-12T02:54:04.124-07:00,-1.127201557159420,0.7383344173431400,2.658459424972530,0.01150202751159670,-0.05342984199523930,0.150735080242157
2022-11-12T02:54:04.134-07:00,-1.221278309822080,0.8465358018875120,2.629348516464230,0.002116858959198000,0.03071987628936770,0.08659285306930540
2022-11-12T02:54:04.144-07:00,-1.156844615936280,0.7757279276847840,2.586381196975710,0.02343213558197020,0.178875207901001,0.06041210889816280
2022-11-12T02:54:04.154-07:00,-1.047938585281370,0.6212905645370480,2.54984188079834,0.08375155925750730,0.2779107093811040,0.03063929080963140
2022-11-12T02:54:04.164-07:00,-0.9983249306678770,0.4738605916500090,2.490865707397460,0.1298746466636660,0.3324354887008670,0.027145741507411
2022-11-12T02:54:04.174-07:00,-1.00585949420929,0.3730098605155950,2.388292789459230,0.1415396332740780,0.3481717705726620,0.02887499146163460
2022-11-12T02:54:04.184-07:00,-1.070232152938840,0.3063538670539860,2.276014089584350,0.1215209364891050,0.3372135758399960,0.02242040261626240
2022-11-12T02:54:04.194-07:00,-1.079719305038450,0.2802742123603820,2.198746919631960,0.09024059772491460,0.3035374879837040,0.01534247398376470
2022-11-12T02:54:04.204-07:00,-1.050727367401120,0.2966709733009340,2.090113401412960,0.05679154396057130,0.27804034948349,-0.01069127768278120
2022-11-12T02:54:04.214-07:00,-0.980024516582489,0.2964983284473420,1.978049397468570,0.04310786724090580,0.2866412401199340,-0.02082586288452150
2022-11-12T02:54:04.224-07:00,-0.8819853067398070,0.2589916884899140,1.875447154045110,0.05227553844451900,0.2962613701820370,-0.02335893362760540
2022-11-12T02:54:04.234-07:00,-0.7952839732170110,0.2275746464729310,1.741192102432250,0.0625794529914856,0.2908275723457340,-0.04861963540315630
2022-11-12T02:54:04.244-07:00,-0.7173140645027160,0.2077932208776470,1.585189461708070,0.0649639368057251,0.2803568840026860,-0.05098569393157960
2022-11-12T02:54:04.255-07:00,-0.6672447919845580,0.186770036816597,1.433976173400880,0.05944609642028810,0.2681666016578670,-0.04667247086763380
2022-11-12T02:54:04.265-07:00,-0.6106108427047730,0.1538890451192860,1.309755921363830,0.05275636911392210,0.2591035962104800,-0.0432359054684639
2022-11-12T02:54:04.274-07:00,-0.5219311714172360,0.1178382709622380,1.210546255111690,0.05324411392211910,0.2472759485244750,-0.0436406135559082
2022-11-12T02:54:04.284-07:00,-0.3714950978755950,0.07251819223165510,1.120259761810300,0.05733704566955570,0.2322236895561220,-0.04422210156917570
2022-11-12T02:54:04.294-07:00,-0.2078714370727540,0.02453405410051350,1.035868763923650,0.05489909648895260,0.2236360907554630,-0.04463815689086910
2022-11-12T02:54:04.304-07:00,-0.04060201719403270,-0.01316432189196350,0.9690186381340030,0.04997092485427860,0.2153175473213200,-0.04583478718996050
2022-11-12T02:54:04.315-07:00,0.1037822216749190,-0.03572838753461840,0.9099497199058530,0.04324156045913700,0.1950237154960630,-0.04499316960573200
2022-11-12T02:54:04.325-07:00,0.2420908361673360,-0.05011717975139620,0.867240309715271,0.03739166259765630,0.1730453968048100,-0.04490518569946290
2022-11-12T02:54:04.335-07:00,0.3735920190811160,-0.05913640558719640,0.8425323367118840,0.03215467929840090,0.1504297852516170,-0.04864680767059330
2022-11-12T02:54:04.345-07:00,0.4921703636646270,-0.06303714215755460,0.8180611133575440,0.03011190891265870,0.1329854130744930,-0.04479217529296880
2022-11-12T02:54:04.355-07:00,0.5842914581298830,-0.05625589936971660,0.7861377596855160,0.02676784992218020,0.1167507469654080,-0.04185426980257030
2022-11-12T02:54:04.365-07:00,0.6421480774879460,-0.04874631762504580,0.754712700843811,0.02949285507202150,0.1006295084953310,-0.04347658157348630
2022-11-12T02:54:04.375-07:00,0.6897000074386600,-0.03545807674527170,0.7292505502700810,0.0373079776763916,0.08265644311904910,-0.04731643199920650
2022-11-12T02:54:04.385-07:00,0.7135456800460820,-0.02136595919728280,0.6921372413635250,0.04033470153808590,0.06532686948776250,-0.04753076285123830
2022-11-12T02:54:04.395-07:00,0.7240581512451170,-0.004284077789634470,0.6684631109237670,0.03883486986160280,0.05325901508331300,-0.05003143101930620
2022-11-12T02:54:04.405-07:00,0.6985485553741460,0.008969409391283990,0.6499288082122800,0.03277808427810670,0.04660788178443910,-0.04763365536928180
2022-11-12T02:54:04.415-07:00,0.6458128094673160,0.02649763785302640,0.6313151717185970,0.02602940797805790,0.03491419553756710,-0.04817306995391850
2022-11-12T02:54:04.425-07:00,0.5883330106735230,0.05003385618329050,0.6118000149726870,0.021537184715271,0.01980367302894590,-0.04468131065368650
2022-11-12T02:54:04.435-07:00,0.5217093229293820,0.05662883818149570,0.5940436720848080,0.01983010768890380,0.01333966851234440,-0.03825831413269040
2022-11-12T02:54:04.445-07:00,0.4422706663608550,0.05341387540102010,0.5694835186004640,0.01398855447769170,0.0101911723613739,-0.02759575843811040
2022-11-12T02:54:04.455-07:00,0.3498576283454900,0.06165182963013650,0.5307329297065740,0.01141905784606930,-0.007408887147903440,-0.02180039137601850
2022-11-12T02:54:04.465-07:00,0.2698272466659550,0.06101773306727410,0.5028690695762630,0.01298940181732180,-0.02341851592063900,-0.0178147554397583
2022-11-12T02:54:04.475-07:00,0.2051348686218260,0.05379437282681470,0.4920432865619660,0.009451627731323240,-0.02291703224182130,-0.009117603302001950
2022-11-12T02:54:04.485-07:00,0.1618441194295880,0.05714169889688490,0.477275550365448,0.001250684261322020,-0.00115591287612915,-0.00240219384431839
2022-11-12T02:54:04.495-07:00,0.1521691679954530,0.04988428577780720,0.4573593437671660,-0.003154873847961430,0.02905336022377010,0.002449631690979000
2022-11-12T02:54:04.505-07:00,0.1508437097072600,0.03695597127079960,0.4371219873428350,-0.002357423305511480,0.05152657628059390,0.005252830684185030
2022-11-12T02:54:04.515-07:00,0.1541618406772610,0.03403491526842120,0.4219552874565130,-0.0005096197128295900,0.05143013596534730,0.002872228622436520
2022-11-12T02:54:04.525-07:00,0.1729959845542910,0.03777132928371430,0.401326984167099,-0.005620121955871580,0.04748642444610600,-0.002441883087158200
2022-11-12T02:54:04.535-07:00,0.1852633059024810,0.04024966806173330,0.3705892860889440,-0.01375263929367070,0.05353319644927980,-0.01093436032533650
2022-11-12T02:54:04.545-07:00,0.2441420555114750,0.05038219690322880,0.3414351344108580,-0.013427734375,0.0558219850063324,-0.01357150077819820
2022-11-12T02:54:04.555-07:00,0.2811172306537630,0.05124150216579440,0.302967369556427,-0.009301960468292240,0.05725416541099550,-0.01648116111755370
2022-11-12T02:54:04.565-07:00,0.2546986639499660,0.05330518260598180,0.2536711990833280,-0.003879904747009280,0.04252105951309200,-0.01513659954071050
2022-11-12T02:54:04.575-07:00,0.1943396925926210,0.06176501139998440,0.2025409042835240,-0.002015113830566410,0.01077362895011900,-0.01614391803741460
2022-11-12T02:54:04.585-07:00,0.1282030045986180,0.0747189000248909,0.1724008470773700,-0.01015859842300420,-0.006621271371841430,-0.01473737135529520
2022-11-12T02:54:04.595-07:00,0.07820069789886480,0.08056146651506420,0.1492798328399660,-0.01468348503112790,0.003117829561233520,-0.0109403058886528
2022-11-12T02:54:04.605-07:00,0.04978077486157420,0.07973695546388630,0.1318307965993880,-0.01020151376724240,0.02198690176010130,-0.008286003023386000
2022-11-12T02:54:04.615-07:00,0.04622621834278110,0.06858234107494350,0.1234894990921020,-0.001004219055175780,0.03104320168495180,-0.003925323486328130
2022-11-12T02:54:04.625-07:00,0.05006729811429980,0.05176234617829320,0.1195552200078960,0.00431591272354126,0.03005141019821170,-0.002793673425912860
2022-11-12T02:54:04.636-07:00,0.05798438191413880,0.04221221804618840,0.103438563644886,0.002939581871032720,0.02911186218261720,-0.006881363689899450
2022-11-12T02:54:04.646-07:00,0.07844970375299450,0.03503047302365300,0.09658199548721310,0.0007954239845275880,0.03003191947937010,-0.006840236485004430
2022-11-12T02:54:04.656-07:00,0.09794813394546510,0.0306199099868536,0.0974682942032814,-0.001271843910217290,0.03317594528198240,-0.01125801354646680
2022-11-12T02:54:04.666-07:00,0.1058249622583390,0.02250126376748090,0.08671285212039950,0.003190875053405760,0.02851471304893490,-0.01440192013978960
2022-11-12T02:54:04.676-07:00,0.0879579558968544,0.0204321201890707,0.06078165024518970,0.004480957984924320,0.01826009154319760,-0.01816487312316900
2022-11-12T02:54:04.686-07:00,0.04456361383199690,0.017481604591012,0.02844687923789020,0.003252387046813970,0.002223342657089230,-0.02465737238526340
2022-11-12T02:54:04.696-07:00,-0.004904871806502340,0.02477227337658410,-0.002653781324625020,-0.001284658908843990,-0.007760077714920040,-0.02731502056121830
2022-11-12T02:54:04.706-07:00,-0.03815736621618270,0.04752152785658840,-0.003913190215826040,-0.007491946220397950,-0.005421102046966550,-0.03263795375823980
2022-11-12T02:54:04.716-07:00,-0.03998605906963350,0.04151333495974540,0.004721310455352070,-0.004447460174560550,0.0131784975528717,-0.02940236777067180
2022-11-12T02:54:04.726-07:00,-0.01813322678208350,0.03414809703826900,0.007390863727778200,0.002605855464935300,0.023842453956604,-0.02440082281827930
2022-11-12T02:54:04.736-07:00,0.003049956634640690,0.03062513470649720,0.01043698750436310,0.004671931266784670,0.0279809832572937,-0.02233778685331350
2022-11-12T02:54:04.746-07:00,0.02735902369022370,0.02441970445215700,0.01639128290116790,0.001974046230316160,0.02354061603546140,-0.02710700035095220
2022-11-12T02:54:04.756-07:00,0.04094626754522320,0.01373423729091880,0.0168397594243288,-5.7220458984375E-06,0.02438554167747500,-0.02483212202787400
2022-11-12T02:54:04.766-07:00,0.03647109866142270,0.007636397145688530,0.01750954426825050,-0.001653552055358890,0.02547842264175420,-0.02339290827512740
2022-11-12T02:54:04.776-07:00,0.02256250381469730,-0.00263038813136518,0.02148084901273250,-0.001393675804138180,0.02850857377052310,-0.02664244174957280
2022-11-12T02:54:04.786-07:00,0.001403955742716790,-0.005082360468804840,0.02109469100832940,-0.002890110015869140,0.02690377831459050,-0.02845216542482380
2022-11-12T02:54:04.796-07:00,-0.03521637246012690,-0.007315686903893950,0.0210448894649744,-0.005972385406494140,0.02101120352745060,-0.02936054021120070
2022-11-12T02:54:04.806-07:00,-0.06669680029153820,-0.008230216801166530,0.02327422238886360,-0.008590996265411380,0.009913057088851930,-0.03243030607700350
2022-11-12T02:54:04.816-07:00,-0.1001183092594150,-0.0006986309308558700,0.02479968033730980,-0.01242327690124510,0.008761405944824220,-0.0305182933807373
2022-11-12T02:54:04.826-07:00,-0.1203569918870930,0.0007328181527554990,0.02367715910077100,-0.01006132364273070,0.01431530714035030,-0.02863025665283200
2022-11-12T02:54:04.836-07:00,-0.1441919207572940,-0.009381967596709730,0.02112212218344210,-0.005760014057159420,0.02158236503601070,-0.02704502642154690
2022-11-12T02:54:04.846-07:00,-0.1596129536628720,-0.01519591361284260,0.00971260666847229,-0.003537893295288090,0.01668226718902590,-0.0241314172744751
2022-11-12T02:54:04.856-07:00,-0.1895127892494200,-0.01928812824189660,-0.009247767738997940,-0.0004200935363769530,0.005633622407913210,-0.02160023897886280
2022-11-12T02:54:04.866-07:00,-0.1907325237989430,-0.02429194189608100,-0.01325875520706180,0.001117110252380370,-0.000367581844329834,-0.01933610439300540
2022-11-12T02:54:04.877-07:00,-0.1756601929664610,-0.03026317991316320,-0.0196258407086134,0.0001744627952575680,0.005089074373245240,-0.01345300674438480
2022-11-12T02:54:04.886-07:00,-0.1483654677867890,-0.0353306457400322,-0.02042931690812110,-0.002380013465881350,0.01953029632568360,-0.0103004053235054
2022-11-12T02:54:04.896-07:00,-0.1173898428678510,-0.04032846540212630,-0.01267685368657110,-0.001033365726470950,0.02425935864448550,-0.009200215339660650
2022-11-12T02:54:04.907-07:00,-0.08888256549835210,-0.04506117105484010,-0.01295009441673760,-0.0002877712249755860,0.02557533979415890,-0.009087204933166500
2022-11-12T02:54:04.917-07:00,-0.05164481326937680,-0.04632440581917760,-0.01478288229554890,-0.001172184944152830,0.02294939756393430,-0.009496085345745090
2022-11-12T02:54:04.927-07:00,-0.02846545912325380,-0.03855756297707560,-0.01054605934768920,-0.006507933139801030,0.01392781734466550,-0.009316213428974150
2022-11-12T02:54:04.937-07:00,-0.02053023688495160,-0.02622026950120930,-0.002509970683604480,-0.008774101734161380,0.009631365537643430,-0.0115746334195137
2022-11-12T02:54:04.947-07:00,-0.02254198864102360,-0.01431700494140390,-0.006761973723769190,-0.008759260177612310,0.008016973733901980,-0.01351797580718990
2022-11-12T02:54:04.957-07:00,-0.03073467314243320,-0.009717991575598720,-0.007514582946896550,-0.004936158657073980,0.002390414476394650,-0.01545882970094680
2022-11-12T02:54:04.967-07:00,-0.04718261957168580,0.002290734089910980,-0.005159283522516490,-0.004684567451477050,-0.0007641911506652830,-0.01314116269350050
2022-11-12T02:54:04.977-07:00,-0.07617392390966420,0.01088115945458410,-0.01640607789158820,-0.005670487880706790,-0.0002487301826477050,-0.01236652582883840
2022-11-12T02:54:04.987-07:00,-0.08669367432594300,0.01077676378190520,-0.01916564628481870,-0.003540098667144780,-0.01131910085678100,-0.01036358624696730
2022-11-12T02:54:04.997-07:00,-0.1092092022299770,0.005423643160611390,-0.02009775303304200,-0.005395412445068360,-0.01653397083282470,-0.009687900543212890
2022-11-12T02:54:05.007-07:00,-0.1365153938531880,0.008448993787169460,-0.02129644155502320,-0.007732629776000980,-0.01037558913230900,-0.007451541721820830
2022-11-12T02:54:05.017-07:00,-0.1661858111619950,-0.008154349401593210,-0.01491817086935040,-0.004172444343566900,-0.004539132118225100,-0.001619569957256320
2022-11-12T02:54:05.027-07:00,-0.1944984048604970,-0.02714002504944800,-0.01129360869526860,-0.003308296203613280,-0.001711994409561160,-0.0002939626574516300
