loggingTime(txt),motionRotationRateX(rad/s),motionRotationRateY(rad/s),motionRotationRateZ(rad/s),motionUserAccelerationX(G),motionUserAccelerationY(G),motionUserAccelerationZ(G)
2022-11-11T14:53:33.685-07:00,-0.0700259655714035,-0.2993151545524600,-0.1054406389594080,0.1164296641945840,0.1108285337686540,0.01562875509262090
2022-11-11T14:53:33.687-07:00,-0.1009367555379870,-0.2163915187120440,-0.06100286543369290,0.05950081348419190,-0.006849095225334170,-0.005968987941741940
2022-11-11T14:53:33.688-07:00,-0.1799432188272480,-0.09912501275539400,-0.01521460525691510,-0.02911798655986790,-0.09061439335346220,-0.02194088697433470
2022-11-11T14:53:33.689-07:00,-0.2608093023300170,0.02356735430657860,0.0777912363409996,-0.05288154631853100,-0.09120504558086400,-0.02436399459838870
2022-11-11T14:53:33.690-07:00,-0.4208325743675230,-0.01112907379865650,0.1477700620889660,-0.02803303301334380,-0.07238733768463140,-0.008293032646179200
2022-11-11T14:53:33.691-07:00,-0.2620786130428310,-0.04750758782029150,-0.00424930639564991,-0.04053664952516560,0.1613366603851320,-0.01264452934265140
2022-11-11T14:53:33.695-07:00,-0.2400442063808440,-0.07708538323640820,0.03713994473218920,0.04014845192432400,-0.04233551025390630,-0.006284594535827640
2022-11-11T14:53:33.696-07:00,-0.1708789765834810,0.01491191424429420,0.06446211785078050,-0.02152920514345170,0.01153780519962310,0.02638888359069820
2022-11-11T14:53:33.697-07:00,-0.1119877025485040,0.04397791996598240,0.0411117821931839,-0.04919557273387910,0.01200661063194280,0.003640353679656980
2022-11-11T14:53:33.703-07:00,-0.05669515579938890,0.06612370163202290,0.03008203767240050,-0.03284242004156110,0.03986068069934850,0.01424133777618410
2022-11-11T14:53:33.713-07:00,0.006147859618067740,0.0455666296184063,0.02742713131010530,-0.005983747541904450,0.01964622735977170,0.02941447496414190
2022-11-11T14:53:33.723-07:00,0.03974976018071180,0.01655175536870960,0.02519273944199090,0.00746125727891922,0.01242215931415560,0.03099274635314940
2022-11-11T14:53:33.733-07:00,0.05668230354785920,-0.01609743386507030,0.015760887414217,0.01685988157987600,0.009271249175071720,0.02318853139877320
2022-11-11T14:53:33.743-07:00,0.06660337746143340,-0.02021601237356660,-0.006516721099615100,0.01819957047700880,0.005523905158042910,0.01244658231735230
2022-11-11T14:53:33.753-07:00,0.06838686764240270,-0.01460523158311840,-0.00532815232872963,0.0116545632481575,0.003316134214401250,0.005284011363983150
2022-11-11T14:53:33.763-07:00,0.08716268837451940,0.002747393678873780,0.004466953687369820,-0.001586630940437320,0.002952173352241520,0.003626167774200440
2022-11-11T14:53:33.773-07:00,0.09985771030187610,-0.002548302290961150,-0.002204530872404580,-0.0059962198138237,0.004068449139595030,0.009732067584991460
2022-11-11T14:53:33.783-07:00,0.0878782793879509,-0.01139638852328060,-0.009528489783406260,0.006297171115875240,0.004232451319694520,0.01180970668792730
2022-11-11T14:53:33.793-07:00,0.06086753308773040,-0.00893306452780962,-0.006712730042636400,0.00877891480922699,-0.0002900511026382450,0.00245058536529541
2022-11-11T14:53:33.803-07:00,0.02246314845979210,0.008224084973335270,0.005681888200342660,0.001591108739376070,-0.006563305854797360,-0.009408771991729740
2022-11-11T14:53:33.813-07:00,-0.01557611115276810,0.009817187674343590,0.006861135829240080,-0.002491526305675510,-0.01101912558078770,-0.02235192060470580
2022-11-11T14:53:33.824-07:00,-0.03962871432304380,0.002243423834443090,0.0008804746903479100,0.001252852380275730,-0.01308709383010860,-0.02366393804550170
2022-11-11T14:53:33.833-07:00,-0.05493666976690290,-0.005094816908240320,-0.000692121684551239,0.005265861749649050,-0.01403704285621640,-0.01430964469909670
2022-11-11T14:53:33.843-07:00,-0.05160824954509740,-0.001211395254358650,0.007721868809312580,0.000529073178768158,-0.009180918335914610,-0.005569577217102050
2022-11-11T14:53:33.853-07:00,-0.04760794714093210,0.0005596398841589690,0.009554922580718990,-0.004275590181350710,-0.000470966100692749,-0.0009717941284179690
2022-11-11T14:53:33.863-07:00,-0.02854797057807450,-0.0007690112106502060,0.006242217496037480,-0.005570903420448300,0.001724064350128170,0.009095132350921630
2022-11-11T14:53:33.874-07:00,-0.01606566645205020,0.001684759277850390,0.0002482403069734570,-0.004943832755088810,0.008311823010444640,0.009908735752105710
2022-11-11T14:53:33.883-07:00,-0.007213318720459940,0.003974811173975470,0.001603523269295690,-0.003397241234779360,0.01027874648571010,0.007590234279632570
2022-11-11T14:53:33.894-07:00,0.006692210212349890,0.003589618485420940,0.005006510298699140,-0.001172624528408050,0.006964728236198430,0.005740880966186520
2022-11-11T14:53:33.903-07:00,0.01309258304536340,0.001489182934165000,0.003686647396534680,-0.0006646588444709780,0.005159258842468260,0.003687381744384770
2022-11-11T14:53:33.914-07:00,0.01619033887982370,0.0009797539096325640,0.001415770035237070,-0.000502854585647583,0.004752591252326970,0.005288004875183110
2022-11-11T14:53:33.924-07:00,0.01820741593837740,0.00610740389674902,0.003950567450374370,-0.001988977193832400,0.00478634238243103,0.004822075366973880
2022-11-11T14:53:33.934-07:00,0.02172761596739290,0.001159217208623890,0.001611246261745690,-0.002514839172363280,0.004282563924789430,0.003752231597900390
2022-11-11T14:53:33.944-07:00,0.01885566301643850,-0.001458137296140190,-0.003014664631336930,0.000997200608253479,0.004502192139625550,0.0004050731658935550
2022-11-11T14:53:33.954-07:00,0.01838168688118460,-0.007021280936896800,-0.005364105105400090,0.007102072238922120,0.002135723829269410,-0.00380396842956543
2022-11-11T14:53:33.964-07:00,0.016018932685256,-0.00987539067864418,-0.001060436945408580,0.005076907575130460,-0.0009739696979522710,-0.001741290092468260
2022-11-11T14:53:33.978-07:00,0.008283048868179320,-0.005769661627709870,-0.0006700176745653150,0.002192199230194090,-0.001254051923751830,0.001284420490264890
2022-11-11T14:53:33.995-07:00,0.002063767984509470,-0.0006199073977768420,-0.003848766442388300,0.001693353056907650,-0.0018349289894104,0.0007874965667724610
2022-11-11T14:53:33.996-07:00,0.002443069592118260,0.007067506667226550,0.00202590087428689,0.0012773796916008,-0.005671918392181400,-0.003217339515686040
2022-11-11T14:53:34.004-07:00,0.003262791782617570,0.01017008908092980,0.007313606794923540,-0.0007937848567962650,-0.004807502031326290,-0.0002048015594482420
2022-11-11T14:53:34.014-07:00,0.00209406204521656,0.008401084691286090,0.003860552329570060,0.0001791343092918400,-9.7915530204773E-05,0.004897654056549070
2022-11-11T14:53:34.024-07:00,-0.0007701683789491650,0.003941355273127560,0.000887132715433836,0.003556892275810240,0.004618912935256960,0.00446242094039917
2022-11-11T14:53:34.034-07:00,-0.008119293488562110,-0.005847759079188110,0.001564907841384410,0.004415705800056460,-0.0006725788116455080,-0.0009362697601318360
2022-11-11T14:53:34.044-07:00,-0.004543732851743700,-0.002863953355699780,0.003974535502493380,0.001694150269031530,-0.002732977271080020,-0.004625201225280760
2022-11-11T14:53:34.054-07:00,-0.002743270248174670,0.003457425627857450,0.00358864339068532,-0.002496995031833650,0.0009905099868774410,-0.002066552639007570
2022-11-11T14:53:34.064-07:00,-0.002343263477087020,0.0003178252372890710,-0.0009323391132056710,-0.004944369196891790,0.007669076323509220,0.001881778240203860
2022-11-11T14:53:34.074-07:00,-0.009685066528618340,-0.01029939949512480,-0.005992877297103410,-0.0008689463138580320,0.004449129104614260,-0.001247048377990720
2022-11-11T14:53:34.084-07:00,-0.01706468500196930,-0.02000821940600870,-0.00644188653677702,0.004301249980926510,-0.0005563944578170780,-0.004077911376953130
2022-11-11T14:53:34.094-07:00,-0.02397722005844120,-0.01386214233934880,-0.004440787248313430,0.00339091569185257,-0.0008537322282791140,-0.006683707237243650
2022-11-11T14:53:34.104-07:00,-0.02518176846206190,-0.006018334534019230,-0.005323891527950760,-0.001449160277843480,0.002215921878814700,-0.003417372703552250
2022-11-11T14:53:34.114-07:00,-0.02233201824128630,0.002757680136710410,-0.002137685660272840,-0.007167205214500430,0.002036571502685550,-0.0001368522644042970
2022-11-11T14:53:34.125-07:00,-0.01122210919857030,0.00722140446305275,0.001429885160177950,-0.005010046064853670,-0.0001082569360733030,0.003952682018280030
2022-11-11T14:53:34.134-07:00,-0.007909270003438000,0.003749308176338670,0.001859453041106460,-0.002564191818237310,0.001736238598823550,0.003932833671569820
2022-11-11T14:53:34.145-07:00,0.004726096987724300,0.0004837401211261750,0.003796370234340430,0.0001449957489967350,0.003013670444488530,0.005619049072265630
2022-11-11T14:53:34.155-07:00,0.00359528511762619,0.004125912208110090,0.004421679768711330,-0.0008188337087631230,0.005185499787330630,0.008416116237640380
2022-11-11T14:53:34.164-07:00,0.001725213602185250,0.01194894872605800,0.008238788694143300,-0.003521651029586790,0.002234399318695070,0.007332563400268560
2022-11-11T14:53:34.174-07:00,0.0003871414810419080,0.0218176580965519,0.01149849779903890,-0.003088094294071200,-0.003355503082275390,0.002929627895355230
2022-11-11T14:53:34.185-07:00,-0.002776427194476130,0.02175773680210110,0.01138771139085290,-0.002812229096889500,-0.003551825881004330,0.0009567737579345700
2022-11-11T14:53:34.194-07:00,-0.0004361420869827270,0.007699541747570040,0.007845173589885240,0.001015543937683110,0.0003962069749832150,0.001952648162841800
2022-11-11T14:53:34.205-07:00,0.009092116728425030,-0.003334200941026210,0.002126567997038360,0.004509568214416500,0.0009200423955917360,0.001367688179016110
2022-11-11T14:53:34.215-07:00,0.002043994143605230,-0.01316918805241590,-0.001643402967602020,0.006845772266387940,0.004029124975204470,0.000774681568145752
2022-11-11T14:53:34.225-07:00,8.2310289144516E-05,-0.01290606893599030,-0.001981624402105810,0.003734499216079710,0.00418466329574585,0.001192331314086910
2022-11-11T14:53:34.235-07:00,-0.004965910688042640,-0.01156310271471740,-0.002349406946450470,0.001925066113471990,0.0015096515417099,0.003140747547149660
2022-11-11T14:53:34.245-07:00,-0.0007392074912786480,-0.01202942244708540,0.0008186898194253450,-0.000356726348400116,0.000975877046585083,-0.002105832099914550
2022-11-11T14:53:34.255-07:00,0.006617607548832890,-0.01486472319811580,-0.003008805681020020,-0.0001669749617576600,0.0009764730930328370,-0.000896751880645752
2022-11-11T14:53:34.265-07:00,0.00575580820441246,-0.01273392792791130,-0.003354750107973810,0.002763077616691590,0.002831071615219120,0.003492474555969240
2022-11-11T14:53:34.275-07:00,0.008397696539759640,-0.01239494048058990,-0.002811465412378310,0.001977220177650450,0.003655657172203060,0.0032539963722229
2022-11-11T14:53:34.285-07:00,0.004541972652077680,-0.01889332011342050,-0.004379267804324630,0.002289324998855590,0.003482446074485780,-0.001802325248718260
2022-11-11T14:53:34.295-07:00,0.01020734943449500,-0.02226278372108940,-0.0114640761166811,0.004469767212867740,0.000252068042755127,-0.003625094890594480
2022-11-11T14:53:34.305-07:00,0.01863572187721730,-0.02258422784507280,-0.01009201537817720,0.00385633111000061,0.0004754364490509030,-0.00262606143951416
2022-11-11T14:53:34.315-07:00,0.03293822705745700,-0.02137754857540130,-0.0133874099701643,-0.001193046569824220,0.002932772040367130,-0.001099526882171630
2022-11-11T14:53:34.325-07:00,0.05073560029268270,-0.0299095194786787,-0.02176598086953160,-0.0004617646336555480,0.007886052131652830,-0.0002495646476745610
2022-11-11T14:53:34.335-07:00,0.07411549240350720,-0.04367832839488980,-0.032581876963377,0.003573916852474210,0.00947648286819458,0.0003385543823242190
2022-11-11T14:53:34.345-07:00,0.09686687588691710,-0.05722396448254590,-0.0461789108812809,0.006940975785255430,0.008267432451248170,0.0008409619331359860
2022-11-11T14:53:34.355-07:00,0.1153809726238250,-0.061130091547966,-0.05493884906172750,0.008966714143753050,0.0111440122127533,-1.94907188415527E-05
2022-11-11T14:53:34.366-07:00,0.1612046509981160,0.006336568854749200,-0.07274846732616430,0.004184611141681670,0.01054093241691590,-0.005708575248718260
2022-11-11T14:53:34.376-07:00,0.1511802524328230,-0.003816199954599140,0.001386741641908880,-0.01664759963750840,0.04494296014308930,-0.02513837814331060
2022-11-11T14:53:34.386-07:00,0.1739492118358610,-0.0340404137969017,-0.05696151778101920,-0.002887465059757230,0.08150312304496770,-0.007215380668640140
2022-11-11T14:53:34.395-07:00,0.2026103138923650,-0.07194428890943530,-0.05936555564403530,0.02239115536212920,0.02671940624713900,-0.01072752475738530
2022-11-11T14:53:34.405-07:00,0.2149732410907750,-0.06988273561000820,-0.06990474462509160,0.01716764271259310,0.01134383678436280,-0.01427149772644040
2022-11-11T14:53:34.415-07:00,0.2408238649368290,-0.04449119418859480,-0.06278212368488310,-0.006319455802440640,0.008304566144943240,-0.0210835337638855
2022-11-11T14:53:34.426-07:00,0.2653241455554960,-0.02944326587021350,-0.05695059895515440,-0.01473116874694820,0.02911752462387090,-0.02574425935745240
2022-11-11T14:53:34.436-07:00,0.2845021188259130,-0.04031991213560100,-0.06400345265865330,-0.009043857455253600,0.04782946407794950,-0.02214986085891720
2022-11-11T14:53:34.445-07:00,0.310237318277359,-0.05902489274740220,-0.07048105448484420,-0.001265637576580050,0.0464196652173996,-0.009961068630218510
2022-11-11T14:53:34.456-07:00,0.3291828632354740,-0.05851606279611590,-0.06499973684549330,0.002438932657241820,0.037549689412117,0.008716762065887450
2022-11-11T14:53:34.466-07:00,0.3299677073955540,-0.04154373705387120,-0.05189991369843480,-0.006092242896556850,0.01876798272132870,0.01449298858642580
2022-11-11T14:53:34.480-07:00,0.3365548849105840,-0.01744865626096730,-0.04290056228637700,-0.01345990598201750,-0.002747461199760440,0.0137016773223877
2022-11-11T14:53:34.496-07:00,0.3317321538925170,-0.0002808533608913420,-0.03851726278662680,-0.01447466760873800,-0.01061451435089110,0.006660401821136480
2022-11-11T14:53:34.498-07:00,0.3344454169273380,0.0168326199054718,-0.03219731897115710,-0.01147352159023290,0.0005188137292861940,0.005493521690368650
2022-11-11T14:53:34.506-07:00,0.3762509226799010,0.002226778771728280,-0.03882432729005810,-0.009019233286380770,0.01030854880809780,-0.0003995299339294430
2022-11-11T14:53:34.516-07:00,0.4454933106899260,-0.041742242872715,-0.07538287341594700,-0.002866700291633610,0.01810884475708010,-0.006671488285064700
2022-11-11T14:53:34.526-07:00,0.5215103030204770,-0.07785338163375850,-0.1108532473444940,0.0124259889125824,0.04327994585037230,-0.007668077945709230
2022-11-11T14:53:34.536-07:00,0.6172065734863280,-0.1083831563591960,-0.1498736143112180,0.01784268021583560,0.08632288873195650,-0.01670360565185550
2022-11-11T14:53:34.546-07:00,0.7043260335922240,-0.1372352987527850,-0.1596085280179980,0.0223558321595192,0.1151775866746900,-0.0192490816116333
2022-11-11T14:53:34.556-07:00,0.7635815739631650,-0.1572989374399190,-0.1751765757799150,0.02388383075594900,0.1268678158521650,-0.01129066944122310
2022-11-11T14:53:34.566-07:00,0.8245818018913270,-0.1605155020952230,-0.1793910264968870,0.01854892820119860,0.09755914658308030,-0.009152829647064210
2022-11-11T14:53:34.576-07:00,0.8513239026069640,-0.150712862610817,-0.1767947226762770,0.01321577280759810,0.05842353403568270,-0.0009908080101013180
2022-11-11T14:53:34.586-07:00,0.8476449847221380,-0.1293633729219440,-0.1678337156772610,0.003855258226394650,0.03003000468015670,0.01311409473419190
2022-11-11T14:53:34.596-07:00,0.8199710845947270,-0.1067646518349650,-0.1546950042247770,-0.007166124880313870,0.003038778901100160,0.01370632648468020
2022-11-11T14:53:34.606-07:00,0.7855550646781920,-0.08631264418363570,-0.1534718126058580,-0.01356374472379680,-0.02043862640857700,0.01676613092422490
2022-11-11T14:53:34.616-07:00,0.7432727217674260,-0.07406070083379750,-0.1565395146608350,-0.01380235329270360,-0.03955487161874770,0.01569265127182010
2022-11-11T14:53:34.627-07:00,0.7265208959579470,-0.0648307204246521,-0.1343476623296740,-0.008589483797550200,-0.03622746467590330,0.02280592918396000
2022-11-11T14:53:34.637-07:00,0.7060365676879880,-0.03930817916989330,-0.1178440451622010,-0.003506503999233250,-0.009482473134994510,0.0252845287322998
2022-11-11T14:53:34.646-07:00,0.6587574481964110,-0.02770958095788960,-0.06851430982351300,0.003766242414712910,0.01305428147315980,0.0173221230506897
2022-11-11T14:53:34.656-07:00,0.5923917293548580,-0.03580822050571440,-0.01972360350191590,0.01564700528979300,0.0127490907907486,0.008638978004455570
2022-11-11T14:53:34.667-07:00,0.5121341347694400,-0.0541912242770195,0.006004663184285160,0.02939575165510180,-0.01756905764341350,0.004023313522338870
2022-11-11T14:53:34.676-07:00,0.4431080222129820,-0.03527935221791270,0.04566605389118200,0.03101077303290370,-0.05995141342282300,0.00932610034942627
2022-11-11T14:53:34.687-07:00,0.3886839151382450,-0.02081013098359110,0.06791916489601140,0.02042953297495840,-0.07588740438222890,-0.0001853704452514650
2022-11-11T14:53:34.696-07:00,0.3850416839122770,-0.01251990906894210,0.0603395402431488,0.006759416311979290,-0.06804856657981870,-0.02635961771011350
2022-11-11T14:53:34.706-07:00,0.4206840991973880,-0.005307004321366550,0.02719197422266010,-0.0004056841135025020,-0.03512896224856380,-0.05979722738265990
2022-11-11T14:53:34.717-07:00,0.4580838680267330,0.01821359992027280,-0.04819705709815030,0.001301083713769910,0.02325771935284140,-0.1176707148551940
2022-11-11T14:53:34.727-07:00,0.5062806606292730,-0.03552392870187760,-0.124231368303299,0.01021722331643110,0.07709614932537080,-0.1817184090614320
2022-11-11T14:53:34.736-07:00,0.5528388023376470,-0.1244950145483020,-0.1735664308071140,0.03916984051465990,0.1114647388458250,-0.2017098665237430
2022-11-11T14:53:34.747-07:00,0.5939651727676390,-0.2181751579046250,-0.2181152552366260,0.06639079004526140,0.111910954117775,-0.1696704030036930
2022-11-11T14:53:34.757-07:00,0.6641805171966550,-0.3331315517425540,-0.2264813035726550,0.06933082640171050,0.09793917834758760,-0.1249001026153560
2022-11-11T14:53:34.767-07:00,0.6895449757575990,-0.3354713916778560,-0.2239281386137010,0.04820970445871350,0.08572632819414140,-0.06804680824279790
2022-11-11T14:53:34.777-07:00,0.6555913686752320,-0.3116708695888520,-0.2272656112909320,0.01983123645186420,0.07394076883792880,-0.04313385486602780
2022-11-11T14:53:34.787-07:00,0.5853486061096190,-0.24642314016819,-0.1744231730699540,0.008562017232179640,0.05845463275909420,-0.0303458571434021
2022-11-11T14:53:34.797-07:00,0.4374119639396670,-0.1759847402572630,-0.08200455456972120,0.01673831604421140,0.04883463680744170,-0.02604252099990850
2022-11-11T14:53:34.807-07:00,0.2461000680923460,-0.1461916863918300,0.003892510198056700,0.04537566006183620,0.03813602030277250,-0.05985718965530400
2022-11-11T14:53:34.817-07:00,-0.02531329356133940,-0.07258487492799760,0.1219621598720550,0.07588203251361850,0.02412938326597210,-0.07343447208404540
2022-11-11T14:53:34.827-07:00,-0.3485989570617680,0.09752027690410610,0.2903663516044620,0.09622710198163990,-0.003644779324531560,-0.07587641477584840
2022-11-11T14:53:34.837-07:00,-0.4125724136829380,0.148240253329277,0.437684953212738,0.1052266955375670,-0.02451676875352860,-0.07469773292541500
2022-11-11T14:53:34.847-07:00,-0.3263173997402190,0.1308700442314150,0.5003044009208680,0.1105539947748180,-0.03954660892486570,-0.05958008766174320
2022-11-11T14:53:34.857-07:00,-0.1712287962436680,-0.02816884219646450,0.3936344385147100,0.1110417023301130,-0.02181400172412400,-0.03970921039581300
2022-11-11T14:53:34.867-07:00,0.006585683673620220,-0.1593423038721090,0.2339004129171370,0.1191264688968660,0.001894775778055190,-0.01845908164978030
2022-11-11T14:53:34.877-07:00,0.1243677139282230,-0.2791906893253330,0.1855760216712950,0.1329908221960070,0.00881566945463419,-0.01990139484405520
2022-11-11T14:53:34.887-07:00,0.1887368410825730,-0.4227156341075900,0.2587453126907350,0.1669238060712810,0.001411945559084420,-0.01589930057525640
2022-11-11T14:53:34.897-07:00,0.1856456995010380,-0.5366155505180360,0.3877736032009130,0.2099555730819700,-0.02298456989228730,-0.01080960035324100
2022-11-11T14:53:34.907-07:00,0.1544121503829960,-0.6013460755348210,0.5066112875938420,0.2208918929100040,-0.04708905890583990,-0.02355271577835080
2022-11-11T14:53:34.917-07:00,0.131376326084137,-0.639654815196991,0.5920098423957830,0.2083512097597120,-0.06935170292854310,-0.02915120124816900
2022-11-11T14:53:34.927-07:00,0.1409242749214170,-0.6738955974578860,0.6510768532752990,0.1895200461149220,-0.08994771540164950,-0.02859503030776980
2022-11-11T14:53:34.937-07:00,0.1440924108028410,-0.7461296319961550,0.6988683938980100,0.167710542678833,-0.1051057800650600,-0.03484988212585450
2022-11-11T14:53:34.947-07:00,0.1732817143201830,-0.7403165102005010,0.7436989545822140,0.161584347486496,-0.1210639923810960,-0.01889115571975710
2022-11-11T14:53:34.957-07:00,0.1884578019380570,-0.7055870890617370,0.8064033389091490,0.1713395118713380,-0.1345292031764980,-0.01028722524642940
2022-11-11T14:53:34.967-07:00,0.1101102754473690,-0.6670346260070800,0.8810871839523320,0.1616566628217700,-0.1163961067795750,-0.03847938776016240
2022-11-11T14:53:34.980-07:00,0.03758867084980010,-0.6236906051635740,0.9597787857055660,0.159134566783905,-0.08716878294944760,-0.03927844762802120
2022-11-11T14:53:34.995-07:00,-0.03414543718099590,-0.5966118574142460,1.042347431182860,0.1627106964588170,-0.08420641720294950,-0.03512728214263920
2022-11-11T14:53:34.998-07:00,-0.123231902718544,-0.5901363492012020,1.189300656318670,0.1583151966333390,-0.0914667472243309,-0.01235288381576540
2022-11-11T14:53:35.008-07:00,-0.16173055768013,-0.5746878981590270,1.367110252380370,0.1701809614896770,-0.1168258711695670,0.00834345817565918
2022-11-11T14:53:35.018-07:00,-0.2370659857988360,-0.5332603454589840,1.504904985427860,0.1800979673862460,-0.1467370986938480,0.02925789356231690
2022-11-11T14:53:35.027-07:00,-0.376191109418869,-0.4580804109573360,1.601446390151980,0.1785819083452230,-0.1351241022348400,0.04320555925369260
2022-11-11T14:53:35.038-07:00,-0.5372990965843200,-0.367316871881485,1.68962037563324,0.1711487472057340,-0.09651162475347520,0.07384306192398070
2022-11-11T14:53:35.048-07:00,-0.6311289072036740,-0.2841274440288540,1.807785630226140,0.1492915451526640,-0.07189138978719710,0.09157174825668340
2022-11-11T14:53:35.058-07:00,-0.6389370560646060,-0.195160835981369,1.939849019050600,0.1203210428357120,-0.06752105057239530,0.0888940691947937
2022-11-11T14:53:35.068-07:00,-0.6034038066864010,-0.1276038885116580,2.045561790466310,0.09618194401264190,-0.07487965375185010,0.09388446807861330
2022-11-11T14:53:35.078-07:00,-0.5494702458381650,-0.06105022877454760,2.107920169830320,0.07870005071163180,-0.07626289129257200,0.08336544036865230
2022-11-11T14:53:35.088-07:00,-0.4638397395610810,0.006611107848584650,2.145216226577760,0.07336756587028500,-0.05486628040671350,0.08297443389892580
2022-11-11T14:53:35.098-07:00,-0.3432551324367520,0.04881112650036810,2.204314231872560,0.06084103137254720,-0.02326508983969690,0.09838855266571050
2022-11-11T14:53:35.108-07:00,-0.1883289217948910,0.07431115210056310,2.29072380065918,0.05002394318580630,0.005093000829219820,0.1039938926696780
2022-11-11T14:53:35.118-07:00,-0.06717965006828310,0.09955506026744840,2.380685567855840,0.05119001120328900,0.01287858560681340,0.1076312661170960
2022-11-11T14:53:35.128-07:00,-0.06878846883773800,0.128856748342514,2.432851552963260,0.05607062578201290,0.008182849735021590,0.09000897407531740
2022-11-11T14:53:35.138-07:00,-0.1897784024477010,0.1682429164648060,2.462111234664920,0.05788028985261920,0.01345211267471310,0.08416938781738280
2022-11-11T14:53:35.148-07:00,-0.3093079924583440,0.1773397326469420,2.504974603652950,0.05253457278013230,0.02214230597019200,0.1052203774452210
2022-11-11T14:53:35.158-07:00,-0.3894568085670470,0.131684809923172,2.574481725692750,0.03438750654459,0.0210840217769146,0.1334364414215090
2022-11-11T14:53:35.168-07:00,-0.4461592435836790,0.09177946299314500,2.639746427536010,0.02887405082583430,0.01400526985526090,0.1681705117225650
2022-11-11T14:53:35.178-07:00,-0.5123516321182250,0.05753341317176820,2.669829607009890,0.02867929264903070,0.006079450249671940,0.1819889545440670
2022-11-11T14:53:35.188-07:00,-0.6028477549552920,0.02666977047920230,2.656221628189090,0.02453881502151490,0.001815676689147950,0.1791008114814760
2022-11-11T14:53:35.198-07:00,-0.7189308404922490,0.00574927544221282,2.635652780532840,0.02638468518853190,0.005857601761817930,0.1573959589004520
2022-11-11T14:53:35.208-07:00,-0.8402772545814510,-0.006933230441063640,2.639575958251950,0.02688737213611600,0.02247461676597600,0.1349113583564760
2022-11-11T14:53:35.218-07:00,-0.9301636815071110,-0.04624128714203840,2.688364744186400,0.01979147270321850,0.04821203649044040,0.1104198694229130
2022-11-11T14:53:35.228-07:00,-0.9260578751564030,-0.1111446544528010,2.741837024688720,0.01089750602841380,0.06427246332168580,0.1116364002227780
2022-11-11T14:53:35.239-07:00,-0.8285959959030150,-0.1687671989202500,2.750480651855470,0.004937522113323210,0.05129171907901760,0.1250940561294560
2022-11-11T14:53:35.248-07:00,-0.7466561198234560,-0.2180146425962450,2.693250417709350,-0.003328137099742890,0.03483688831329350,0.1258537769317630
2022-11-11T14:53:35.258-07:00,-0.7051602005958560,-0.2590461671352390,2.61997389793396,-0.008647631853818890,0.0554073303937912,0.1095154881477360
2022-11-11T14:53:35.268-07:00,-0.6356247663497930,-0.2976223230361940,2.590829849243160,-0.004615020006895070,0.09196564555168150,0.09279710054397580
2022-11-11T14:53:35.278-07:00,-0.5670063495635990,-0.3765197396278380,2.601776838302610,-0.002810947597026830,0.1238963007926940,0.06023120880126950
2022-11-11T14:53:35.289-07:00,-0.5419777035713200,-0.4601395726203920,2.616065263748170,-0.005327921360731130,0.1342968493700030,0.03081166744232180
2022-11-11T14:53:35.298-07:00,-0.5619595050811770,-0.4953347444534300,2.593123435974120,-0.005401685833930970,0.110730916261673,0.01196742057800290
2022-11-11T14:53:35.308-07:00,-0.6450727581977840,-0.4880739152431490,2.51880931854248,-0.01418646425008770,0.06584613025188450,-0.0009958148002624510
2022-11-11T14:53:35.318-07:00,-0.7811954021453860,-0.4598380327224730,2.426235437393190,-0.02966044098138810,0.03588587045669560,-0.00650864839553833
2022-11-11T14:53:35.329-07:00,-0.9174312949180600,-0.4292572438716890,2.379950761795040,-0.04644903913140300,0.04494354128837590,0.002084434032440190
2022-11-11T14:53:35.339-07:00,-1.036931991577150,-0.4232292473316190,2.362469911575320,-0.057467982172966,0.07205787301063540,0.01105904579162600
2022-11-11T14:53:35.349-07:00,-1.139746069908140,-0.42571160197258,2.33394718170166,-0.07115882635116580,0.1006216555833820,0.0274544358253479
2022-11-11T14:53:35.359-07:00,-1.146006226539610,-0.4074150025844570,2.278151512146000,-0.0860932469367981,0.1101380288600920,0.04718482494354250
2022-11-11T14:53:35.369-07:00,-1.072258710861210,-0.3683802485466000,2.204527616500850,-0.1109688431024550,0.1091852784156800,0.05090659856796270
2022-11-11T14:53:35.380-07:00,-0.9528741836547850,-0.3167146742343900,2.116717100143430,-0.1341332346200940,0.1152926832437520,0.03196871280670170
2022-11-11T14:53:35.389-07:00,-0.7984598875045780,-0.2864212393760680,2.037301063537600,-0.1422831565141680,0.1290510594844820,0.00388646125793457
2022-11-11T14:53:35.399-07:00,-0.6359535455703740,-0.262659102678299,1.962846159935000,-0.1372545510530470,0.1349868774414060,-0.01273924112319950
2022-11-11T14:53:35.409-07:00,-0.449109673500061,-0.2402840256690980,1.889515519142150,-0.1339360177516940,0.1203185617923740,-0.006946921348571780
2022-11-11T14:53:35.419-07:00,-0.2975103855133060,-0.214996412396431,1.803752064704900,-0.1404414772987370,0.094798743724823,-0.01493722200393680
2022-11-11T14:53:35.430-07:00,-0.2193633913993840,-0.2036132663488390,1.689512610435490,-0.1446431428194050,0.06734201312065130,-0.003364861011505130
2022-11-11T14:53:35.439-07:00,-0.2341376394033430,-0.183430939912796,1.564244747161870,-0.143049567937851,0.03173777461051940,0.02219671010971070
2022-11-11T14:53:35.449-07:00,-0.3075245320796970,-0.1788385808467870,1.462950944900510,-0.1388886570930480,-0.003056585788726810,0.04720777273178100
2022-11-11T14:53:35.459-07:00,-0.4643117487430570,-0.1758555769920350,1.373279929161070,-0.1362850666046140,-0.03850558400154110,0.07650768756866460
2022-11-11T14:53:35.469-07:00,-0.7500460147857670,-0.1621597409248350,1.292093396186830,-0.1353409588336950,-0.07205784320831300,0.1014655828475950
2022-11-11T14:53:35.480-07:00,-1.034443736076360,-0.1341213434934620,1.250091314315800,-0.1334640383720400,-0.09387415647506710,0.118268609046936
2022-11-11T14:53:35.495-07:00,-1.310122728347780,-0.121541365981102,1.228018283843990,-0.1275259554386140,-0.12537682056427,0.1209837198257450
2022-11-11T14:53:35.499-07:00,-1.575739622116090,-0.09587554633617400,1.188388824462890,-0.1159732937812810,-0.1582742631435390,0.118312656879425
2022-11-11T14:53:35.509-07:00,-1.769657731056210,-0.01332155428826810,1.141521215438840,-0.09719279408454900,-0.1924371421337130,0.1072502136230470
2022-11-11T14:53:35.519-07:00,-1.916590213775640,0.06926073879003530,1.12474000453949,-0.08875323832035070,-0.2007335424423220,0.06348031759262090
2022-11-11T14:53:35.529-07:00,-2.049875259399410,0.08369160443544390,1.14506983757019,-0.07963447272777560,-0.1646256148815160,0.01392215490341190
2022-11-11T14:53:35.539-07:00,-2.11060094833374,0.04527481272816660,1.196609973907470,-0.04377187788486480,-0.1170274615287780,0.002625584602355960
2022-11-11T14:53:35.549-07:00,-2.105242967605590,-0.04176261648535730,1.231994271278380,0.0004071593284606930,-0.09942108392715450,0.0206722617149353
2022-11-11T14:53:35.560-07:00,-2.113711833953860,-0.1389914005994800,1.217630863189700,0.02260108292102810,-0.1028400957584380,0.05076038837432860
2022-11-11T14:53:35.570-07:00,-2.203765869140630,-0.2527866661548620,1.193218350410460,0.03119941055774690,-0.1164605319499970,0.07628405094146730
2022-11-11T14:53:35.579-07:00,-2.396747827529910,-0.3266660571098330,1.185951709747310,0.03713713586330410,-0.138605535030365,0.1022845506668090
2022-11-11T14:53:35.590-07:00,-2.653783798217770,-0.349440336227417,1.232344508171080,0.04408197104930880,-0.1733556389808660,0.1244632601737980
2022-11-11T14:53:35.600-07:00,-2.915283441543580,-0.2787682712078090,1.302469253540040,0.03742808103561400,-0.2011212706565860,0.1331027150154110
2022-11-11T14:53:35.609-07:00,-3.116119623184200,-0.119113102555275,1.374382615089420,0.01747819781303410,-0.2149392366409300,0.1113317608833310
2022-11-11T14:53:35.620-07:00,-3.334342479705810,0.04085619747638700,1.457783579826360,-0.0005885995924472810,-0.1929914355278020,0.05604428052902220
2022-11-11T14:53:35.630-07:00,-3.530914783477780,0.177067294716835,1.575453996658330,0.01164737343788150,-0.1291982531547550,0.02082407474517820
2022-11-11T14:53:35.640-07:00,-3.69885778427124,0.3457134366035460,1.752513527870180,0.04206171631813050,-0.05910789966583250,-0.02045458555221560
2022-11-11T14:53:35.650-07:00,-3.849706411361690,0.5093244910240170,1.960184335708620,0.06145431846380230,0.003573715686798100,-0.04670059680938720
2022-11-11T14:53:35.660-07:00,-4.003693580627440,0.6078287363052370,2.151090145111080,0.0508321151137352,0.04838305711746220,-0.05143111944198610
2022-11-11T14:53:35.670-07:00,-4.054232120513920,0.6313077211380010,2.297802686691280,0.03330057114362720,0.04091513156890870,-0.010326087474823
2022-11-11T14:53:35.680-07:00,-3.910584688186650,0.6164205074310300,2.415035724639890,0.01462246477603910,-0.04197162389755250,0.05339634418487550
2022-11-11T14:53:35.690-07:00,-3.639393329620360,0.6615304946899410,2.464661121368410,-0.006554797291755680,-0.1649098992347720,0.1174494028091430
2022-11-11T14:53:35.700-07:00,-3.338453531265260,0.7797251343727110,2.369347095489500,-0.03780390322208410,-0.2694758176803590,0.1688429713249210
2022-11-11T14:53:35.710-07:00,-3.107033967971800,0.9731704592704770,2.124256610870360,-0.06967438757419590,-0.3210229277610780,0.1859315633773800
2022-11-11T14:53:35.720-07:00,-2.987312316894530,1.171253800392150,1.818740606307980,-0.08147872984409330,-0.2887024283409120,0.196394681930542
2022-11-11T14:53:35.730-07:00,-2.95504903793335,1.295350909233090,1.617151141166690,-0.0567384660243988,-0.19112229347229,0.2031779289245610
2022-11-11T14:53:35.740-07:00,-3.006809234619140,1.294612169265750,1.61642587184906,0.0003515183925628660,-0.05247533321380620,0.2138520479202270
2022-11-11T14:53:35.750-07:00,-3.031603336334230,1.223419785499570,1.796592712402340,0.07710543274879460,0.07195603847503660,0.2206528186798100
2022-11-11T14:53:35.760-07:00,-2.946986436843870,1.139709711074830,2.050982236862180,0.131891280412674,0.1320960521698000,0.2130048274993900
2022-11-11T14:53:35.770-07:00,-2.807446718215940,1.066592812538150,2.21601128578186,0.1415306925773620,0.1106691360473630,0.205202043056488
2022-11-11T14:53:35.780-07:00,-2.658998012542730,1.04366409778595,2.194605588912960,0.1055825054645540,0.02839457988739010,0.2024331092834470
2022-11-11T14:53:35.790-07:00,-2.513929843902590,1.125298261642460,2.063969850540160,0.04497537016868590,-0.08786839246749880,0.1980523765087130
2022-11-11T14:53:35.800-07:00,-2.28253173828125,1.307789921760560,1.879415512084960,-0.01633420586586000,-0.1839771866798400,0.1900410354137420
2022-11-11T14:53:35.811-07:00,-2.149102449417110,1.468656301498410,1.621926426887510,-0.04475253820419310,-0.2228636741638180,0.1791228950023650
2022-11-11T14:53:35.820-07:00,-2.266047239303590,1.53431761264801,1.451069235801700,-0.01598474383354190,-0.1295871734619140,0.1841081976890560
2022-11-11T14:53:35.830-07:00,-2.376923084259030,1.49446713924408,1.521660566329960,0.05119317770004270,0.07356619834899900,0.2049481868743900
2022-11-11T14:53:35.840-07:00,-2.239182710647580,1.345813393592830,1.763735771179200,0.1260579228401180,0.2361763119697570,0.2071810960769650
2022-11-11T14:53:35.850-07:00,-1.999425649642940,1.174991369247440,1.952690243721010,0.1780445873737340,0.273261547088623,0.1958113461732860
2022-11-11T14:53:35.860-07:00,-1.857282280921940,1.00796365737915,1.987537622451780,0.1750128269195560,0.2147951126098630,0.166709378361702
2022-11-11T14:53:35.870-07:00,-1.686757445335390,0.9366222620010380,1.950400114059450,0.1259174346923830,0.1115695238113400,0.1043471843004230
2022-11-11T14:53:35.880-07:00,-1.404809355735780,0.9812564849853520,1.89881432056427,0.05972039699554440,0.0003362298011779790,0.05279594659805300
2022-11-11T14:53:35.891-07:00,-1.149842858314510,1.054217457771300,1.819485425949100,0.007357001304626470,-0.07509231567382810,0.02611458301544190
2022-11-11T14:53:35.900-07:00,-0.9766871333122250,1.077168107032780,1.719368577003480,-0.01839470863342290,-0.09896284341812130,0.02271809428930280
2022-11-11T14:53:35.911-07:00,-0.9290199875831600,1.03824520111084,1.657907366752630,-0.009187400341033940,-0.07196247577667240,0.04120947420597080
2022-11-11T14:53:35.920-07:00,-0.9781498908996580,0.9544602036476140,1.688931703567510,0.02033597230911260,-0.01263797283172610,0.07894623279571530
2022-11-11T14:53:35.931-07:00,-1.076759219169620,0.8165760636329650,1.744320392608640,0.05482274293899540,0.03885495662689210,0.109352707862854
2022-11-11T14:53:35.941-07:00,-1.164540648460390,0.6700305938720700,1.741259932518010,0.07655370235443120,0.03705000877380370,0.1080842614173890
2022-11-11T14:53:35.951-07:00,-1.254496097564700,0.571353018283844,1.711919069290160,0.08279597759246830,0.01153111457824710,0.05081832781434060
2022-11-11T14:53:35.961-07:00,-1.297239661216740,0.5380443334579470,1.694257616996770,0.08312135934829710,0.01869773864746090,-0.02016931772232060
2022-11-11T14:53:35.971-07:00,-1.261638879776000,0.5050587058067320,1.68523108959198,0.08066385984420780,0.05036991834640500,-0.06885313987731930
2022-11-11T14:53:35.994-07:00,-1.233808994293210,0.4393975734710690,1.63806939125061,0.07907015085220340,0.06873083114624020,-0.0816880464553833
2022-11-11T14:53:35.996-07:00,-1.269252300262450,0.3704020082950590,1.576650619506840,0.07657968997955320,0.06172960996627810,-0.06360149383544920
2022-11-11T14:53:36.001-07:00,-1.28504478931427,0.3143547475337980,1.533854246139530,0.07071661949157720,0.0404205322265625,-0.03404378890991210
2022-11-11T14:53:36.012-07:00,-1.305894494056700,0.265435665845871,1.485915184021000,0.06276047229766850,0.002120554447174070,0.001612542197108270
2022-11-11T14:53:36.021-07:00,-1.411284565925600,0.2205163687467580,1.441730260849000,0.06034725904464720,-0.01966440677642820,0.03353571146726610
2022-11-11T14:53:36.032-07:00,-1.485656499862670,0.1799934506416320,1.423563838005070,0.06987500190734860,-0.008132994174957280,0.04689788445830350
2022-11-11T14:53:36.041-07:00,-1.474392533302310,0.1197228133678440,1.419264078140260,0.08562958240509030,0.01387470960617070,0.02666794508695600
2022-11-11T14:53:36.052-07:00,-1.435708284378050,0.04079577326774600,1.388564229011540,0.1045626401901250,0.0433506965637207,-0.001979589462280270
2022-11-11T14:53:36.062-07:00,-1.414550542831420,-0.03115694411098960,1.349463701248170,0.1165909171104430,0.08854490518569950,-0.0316845178604126
2022-11-11T14:53:36.071-07:00,-1.432325839996340,-0.0906335860490799,1.314713716506960,0.1252554655075070,0.1238634586334230,-0.06511783599853520
2022-11-11T14:53:36.081-07:00,-1.466352105140690,-0.1530574858188630,1.288280010223390,0.1207528114318850,0.1387317776679990,-0.07518064230680470
2022-11-11T14:53:36.092-07:00,-1.488855242729190,-0.197640135884285,1.255620360374450,0.1062965393066410,0.1202686429023740,-0.07818043231964110
2022-11-11T14:53:36.101-07:00,-1.532566070556640,-0.2000053822994230,1.221890211105350,0.0843651294708252,0.08850187063217160,-0.07730649411678310
2022-11-11T14:53:36.111-07:00,-1.574270129203800,-0.1878155618906020,1.195038437843320,0.06477022171020510,0.06726175546646120,-0.06653070449829100
2022-11-11T14:53:36.121-07:00,-1.556768298149110,-0.1857500076293950,1.190999388694760,0.05641078948974610,0.06249701976776120,-0.05401337146759030
2022-11-11T14:53:36.132-07:00,-1.461017847061160,-0.2130114585161210,1.184420108795170,0.05884468555450440,0.06879687309265140,-0.04024839401245120
2022-11-11T14:53:36.141-07:00,-1.302529573440550,-0.2309834510087970,1.166260123252870,0.0610383152961731,0.08558744192123410,-0.05527617037296300
2022-11-11T14:53:36.152-07:00,-1.071149110794070,-0.239688515663147,1.172581434249880,0.06452304124832150,0.1221780180931090,-0.08277072012424470
2022-11-11T14:53:36.161-07:00,-0.7791231870651250,-0.2544632852077480,1.205318450927730,0.06694537401199340,0.1649258732795720,-0.0933925062417984
2022-11-11T14:53:36.172-07:00,-0.4521922171115880,-0.2689399719238280,1.246291160583500,0.06602782011032100,0.1938132643699650,-0.09528768062591550
2022-11-11T14:53:36.182-07:00,-0.1943862736225130,-0.2613984048366550,1.268271088600160,0.0607108473777771,0.200995922088623,-0.1012357622385030
2022-11-11T14:53:36.192-07:00,-0.04233308881521230,-0.2196240574121480,1.257694125175480,0.05680936574935910,0.1976246237754820,-0.105773076415062
2022-11-11T14:53:36.202-07:00,0.06584903597831730,-0.192277118563652,1.262388467788700,0.05731838941574100,0.179070770740509,-0.1016323566436770
2022-11-11T14:53:36.212-07:00,0.1818699240684510,-0.1946888864040380,1.284973978996280,0.06231904029846190,0.147445946931839,-0.08707655966281890
2022-11-11T14:53:36.222-07:00,0.2638518214225770,-0.2068573236465450,1.284876465797420,0.06803208589553830,0.1239632666110990,-0.06931377947330480
2022-11-11T14:53:36.231-07:00,0.3291764855384830,-0.2078251242637630,1.267602920532230,0.06960022449493410,0.1157881319522860,-0.06055176258087160
2022-11-11T14:53:36.242-07:00,0.4139611423015590,-0.180493101477623,1.257627248764040,0.06922316551208500,0.1253077685832980,-0.06485283374786380
2022-11-11T14:53:36.252-07:00,0.4912769794464110,-0.1493815332651140,1.253494381904600,0.06661087274551390,0.1372777819633480,-0.06538139283657070
2022-11-11T14:53:36.262-07:00,0.528842031955719,-0.1350961923599240,1.221589088439940,0.06490176916122440,0.1407195627689360,-0.06041860580444340
2022-11-11T14:53:36.272-07:00,0.4550051093101500,-0.1328362226486210,1.132891416549680,0.06178992986679080,0.1287040710449220,-0.05816984176635740
2022-11-11T14:53:36.282-07:00,0.3190336525440220,-0.1115857362747190,1.023398518562320,0.06108802556991580,0.09953907132148740,-0.07566703855991360
2022-11-11T14:53:36.292-07:00,0.1886633634567260,-0.08937763422727590,0.9350281357765200,0.06282997131347660,0.06863817572593690,-0.0922544002532959
2022-11-11T14:53:36.302-07:00,0.0930832251906395,-0.09198237955570220,0.8659303188323980,0.06001383066177370,0.04737177491188050,-0.09302926063537600
2022-11-11T14:53:36.312-07:00,0.02781953290104870,-0.1228132620453840,0.7962654829025270,0.05872535705566410,0.04785346984863280,-0.07553160190582280
2022-11-11T14:53:36.322-07:00,-0.02487410604953770,-0.1483177542686460,0.7274837493896480,0.05250048637390140,0.06676578521728520,-0.05343137681484220
2022-11-11T14:53:36.332-07:00,-0.04766144603490830,-0.1673023700714110,0.6786760091781620,0.04502791166305540,0.08695757389068600,-0.03214357793331150
2022-11-11T14:53:36.342-07:00,-0.061507448554039,-0.179653599858284,0.6388127207756040,0.0367313027381897,0.09435412287712100,-0.01743386685848240
2022-11-11T14:53:36.352-07:00,-0.09546754509210590,-0.1998952180147170,0.5937110185623170,0.03249043226242070,0.09250319004058840,-0.004959948360919950
2022-11-11T14:53:36.363-07:00,-0.1633299440145490,-0.2339698374271390,0.5305248498916630,0.03148263692855840,0.0852828323841095,0.006715767085552220
2022-11-11T14:53:36.373-07:00,-0.2420268952846530,-0.2532894909381870,0.4708226919174190,0.03020328283309940,0.07956564426422120,0.01257310807704930
2022-11-11T14:53:36.383-07:00,-0.319172590970993,-0.270701676607132,0.4189227223396300,0.031330406665802,0.07127803564071660,0.001291751861572270
2022-11-11T14:53:36.393-07:00,-0.3679726421833040,-0.2859352231025700,0.3828246295452120,0.03362095355987550,0.0688605010509491,-0.005831360816955570
2022-11-11T14:53:36.402-07:00,-0.4231483042240140,-0.3048449754714970,0.321873664855957,0.03457146883010860,0.07731771469116210,-0.006993301212787630
2022-11-11T14:53:36.412-07:00,-0.4608501493930820,-0.3092056512832640,0.2683822214603420,0.02999424934387210,0.08542409539222720,-0.006200186908245090
2022-11-11T14:53:36.422-07:00,-0.4763698875904080,-0.3114510774612430,0.2257343679666520,0.01970517635345460,0.08616146445274350,-0.0004171133041381840
2022-11-11T14:53:36.432-07:00,-0.4933858811855320,-0.3157443404197690,0.1676686704158780,0.005365312099456790,0.08269375562667850,0.006657488644123080
2022-11-11T14:53:36.442-07:00,-0.5106217265129090,-0.3069744110107420,0.1189408004283910,-0.004264414310455320,0.07602858543396000,0.01274502277374270
2022-11-11T14:53:36.452-07:00,-0.5080826878547670,-0.2934436798095700,0.07507640868425370,-0.01133030652999880,0.07433292269706730,0.01208221912384030
2022-11-11T14:53:36.462-07:00,-0.4820704460144040,-0.2799737453460690,0.0394800640642643,-0.01225930452346800,0.07774487137794500,0.01202703267335890
2022-11-11T14:53:36.480-07:00,-0.4704196453094480,-0.2660019993782040,-0.006690093316137790,-0.01689386367797850,0.08511865139007570,0.01701592653989790
2022-11-11T14:53:36.496-07:00,-0.4809496402740480,-0.2467815726995470,-0.04254236817359920,-0.02125757932662960,0.09522160887718200,0.01924634724855420
2022-11-11T14:53:36.498-07:00,-0.4759958982467650,-0.2266190499067310,-0.07077346742153170,-0.02457225322723390,0.1014453768730160,0.02476013451814650
2022-11-11T14:53:36.503-07:00,-0.4742897748947140,-0.2147153466939930,-0.09474724531173710,-0.02663683891296390,0.09758281707763670,0.03044687956571580
2022-11-11T14:53:36.513-07:00,-0.4569715261459350,-0.1955059617757800,-0.121584989130497,-0.02997416257858280,0.0880989134311676,0.03442347049713140
2022-11-11T14:53:36.523-07:00,-0.40629842877388,-0.1700781881809240,-0.124201811850071,-0.03085595369338990,0.08383229374885560,0.03401064872741700
2022-11-11T14:53:36.533-07:00,-0.3287578225135800,-0.1502711921930310,-0.117659755051136,-0.03085732460021970,0.07943519949913030,0.03041420876979830
2022-11-11T14:53:36.543-07:00,-0.2517951428890230,-0.1299858838319780,-0.1248638778924940,-0.02950382232666020,0.07705360651016240,0.03238176554441450
2022-11-11T14:53:36.553-07:00,-0.2078119665384290,-0.1042091548442840,-0.1388955265283590,-0.03352171182632450,0.07341548800468450,0.03411232680082320
2022-11-11T14:53:36.563-07:00,-0.1626770496368410,-0.06190716475248340,-0.1456535756587980,-0.0375746488571167,0.06484737992286680,0.03228092938661580
2022-11-11T14:53:36.573-07:00,-0.162585973739624,0.001445174682885410,-0.15879787504673,-0.04234331846237180,0.05572050809860230,0.02934109419584270
2022-11-11T14:53:36.583-07:00,-0.1885245144367220,0.03680466488003730,-0.1713272333145140,-0.0382617712020874,0.04923641681671140,0.02034258097410200
2022-11-11T14:53:36.593-07:00,-0.1817004382610320,0.03334734961390500,-0.1632418781518940,-0.03152376413345340,0.03916850686073300,0.01927995681762700
2022-11-11T14:53:36.603-07:00,-0.1677452772855760,0.01830641180276870,-0.1492991745471950,-0.02708601951599120,0.03036296367645260,0.02472376823425290
2022-11-11T14:53:36.613-07:00,-0.1530518233776090,0.02575447596609590,-0.1376616954803470,-0.027485191822052,0.03167057037353520,0.03151905536651610
2022-11-11T14:53:36.623-07:00,-0.1433525830507280,0.05812333524227140,-0.1253770589828490,-0.03464490175247190,0.03965258598327640,0.02719619125127790
2022-11-11T14:53:36.633-07:00,-0.1346504390239720,0.09016914665699010,-0.1089970245957380,-0.04005014896392820,0.04653987288475040,0.02151191234588620
2022-11-11T14:53:36.644-07:00,-0.1004198640584950,0.09353575110435490,-0.09521090984344480,-0.04128831624984740,0.03942376375198360,0.02335226535797120
2022-11-11T14:53:36.653-07:00,-0.06036671996116640,0.08856922388076780,-0.09144200384616850,-0.03953909873962400,0.03045430779457090,0.02948212623596190
2022-11-11T14:53:36.663-07:00,-0.03340258076787000,0.08938664197921750,-0.09812626987695690,-0.03821074962615970,0.02070119976997380,0.02873586863279340
2022-11-11T14:53:36.673-07:00,-0.02787092886865140,0.1076095923781400,-0.1053714007139210,-0.03420794010162350,0.0193626880645752,0.02170812338590620
2022-11-11T14:53:36.683-07:00,-0.0245556253939867,0.1356756389141080,-0.1088633313775060,-0.03237611055374150,0.02215403318405150,0.00801384449005127
2022-11-11T14:53:36.693-07:00,-0.02433724515140060,0.1561188697814940,-0.115297257900238,-0.0286858081817627,0.0234801173210144,-0.003373973071575170
2022-11-11T14:53:36.703-07:00,-0.03274368122220040,0.1577574163675310,-0.122532807290554,-0.02057522535324100,0.02581200003623960,-0.004013776779174810
2022-11-11T14:53:36.713-07:00,-0.03206989914178850,0.1448405534029010,-0.1237738430500030,-0.01022088527679440,0.02352073788642880,0.001548543572425840
2022-11-11T14:53:36.723-07:00,-0.03690307214856150,0.1247010007500650,-0.1310930103063580,-0.003599464893341060,0.01533213257789610,0.008648872375488280
2022-11-11T14:53:36.733-07:00,-0.05577263236045840,0.1172779649496080,-0.146137461066246,-0.0005436539649963380,0.004194259643554690,0.008219495415687560
2022-11-11T14:53:36.743-07:00,-0.07048875838518140,0.1307030022144320,-0.1616354584693910,-0.001739203929901120,-0.004808336496353150,-8.08238983154297E-05
2022-11-11T14:53:36.753-07:00,-0.0753793939948082,0.1504508554935460,-0.1655524373054500,-0.004683077335357670,-0.004826784133911130,-0.01029647141695020
2022-11-11T14:53:36.763-07:00,-0.06245943158864980,0.1648653149604800,-0.1597419679164890,0.0006775856018066410,-0.001583129167556760,-0.01497650146484380
2022-11-11T14:53:36.774-07:00,-0.04230329766869550,0.1623784601688390,-0.1548284292221070,0.009763181209564210,0.005761593580245970,-0.0182574987411499
2022-11-11T14:53:36.783-07:00,-0.01894467696547510,0.153738334774971,-0.1444269269704820,0.01819044351577760,0.01206192374229430,-0.01777360588312150
2022-11-11T14:53:36.793-07:00,0.002822935581207280,0.1259485185146330,-0.1338965147733690,0.02496379613876340,0.01407462358474730,-0.01786957681179050
2022-11-11T14:53:36.803-07:00,-0.0007631424814462660,0.1125505566596990,-0.1345127671957020,0.02631545066833500,0.01063224673271180,-0.02382862567901610
2022-11-11T14:53:36.813-07:00,-0.01357161626219750,0.1104485243558880,-0.1331580132246020,0.02128326892852780,0.003356963396072390,-0.03360533714294430
2022-11-11T14:53:36.823-07:00,-0.02522577717900280,0.1203559190034870,-0.127331018447876,0.01104831695556640,-0.006699174642562870,-0.03553307056427000
2022-11-11T14:53:36.834-07:00,-0.04657474160194400,0.1147885769605640,-0.1273376792669300,0.006544411182403560,-0.01031240820884710,-0.03340278565883640
2022-11-11T14:53:36.843-07:00,-0.04613195732235910,0.09429538249969480,-0.118586003780365,0.005042791366577150,-0.01701846718788150,-0.03121089935302730
2022-11-11T14:53:36.853-07:00,-0.0357043519616127,0.07975266128778460,-0.09332938492298130,0.009027421474456790,-0.01489219069480900,-0.03148878365755080
2022-11-11T14:53:36.863-07:00,-0.02561210095882420,0.06351463496685030,-0.07557328790426250,0.0109107494354248,-0.007712066173553470,-0.03062857687473300
2022-11-11T14:53:36.873-07:00,-0.01073275320231920,0.05532994493842130,-0.06402076035737990,0.01111382246017460,0.000649183988571167,-0.03367911279201510
2022-11-11T14:53:36.883-07:00,0.0226473081856966,0.04940174892544750,-0.04602258652448650,0.007130205631256100,0.002466887235641480,-0.0394883006811142
2022-11-11T14:53:36.894-07:00,0.06004048883914950,0.05746979266405110,-0.03284020349383350,0.006925463676452640,-0.004694312810897830,-0.04194794595241550
2022-11-11T14:53:36.904-07:00,0.06520542502403260,0.0719536617398262,-0.04025950655341150,0.003100752830505370,-0.005325734615325930,-0.04255855828523640
2022-11-11T14:53:36.914-07:00,0.06813889741897580,0.06663452833890920,-0.03315179422497750,0.008395254611968990,-0.006150305271148680,-0.03946126252412800
2022-11-11T14:53:36.924-07:00,0.08501121401786800,0.04407475888729100,-0.0134782250970602,0.01412665843963620,-0.01040983200073240,-0.03942348062992100
2022-11-11T14:53:36.934-07:00,0.08897053450345990,0.02118276059627530,-0.001468966249376540,0.02036643028259280,-0.011525958776474,-0.04004870355129240
2022-11-11T14:53:36.944-07:00,0.05642474442720410,-0.004787754267454150,-0.0064908885397017,0.02009260654449460,-0.00740399956703186,-0.0320030152797699
2022-11-11T14:53:36.954-07:00,0.01718067191541200,-0.03381940349936490,-0.01013276167213920,0.01336616277694700,-0.003321290016174320,-0.02040410041809080
2022-11-11T14:53:36.965-07:00,-0.01962052099406720,-0.05025480687618260,-0.0119575597345829,0.002470016479492190,-0.003618329763412480,-0.0108417272567749
2022-11-11T14:53:36.981-07:00,-0.06688657402992250,-0.04009830951690670,-0.03895482420921330,-0.007951200008392330,-0.00300106406211853,-0.007165417075157170
2022-11-11T14:53:36.996-07:00,-0.1525299102067950,-0.02492674440145490,-0.1080697104334830,-0.01431924104690550,0.002502918243408200,-0.01008367538452150
2022-11-11T14:53:36.997-07:00,-0.2350112050771710,-0.01291695423424240,-0.1831910908222200,-0.01731890439987180,0.01180127263069150,-0.009840138256549840
2022-11-11T14:53:37.005-07:00,-0.3110294342041020,-0.02849974110722540,-0.2591891884803770,-0.01193368434906010,0.01259541511535650,-0.009005546569824220
2022-11-11T14:53:37.015-07:00,-0.4142564833164220,-0.08421307057142260,-0.3430066108703610,-0.0100441575050354,0.01707509160041810,0.006500974297523500
2022-11-11T14:53:37.024-07:00,-0.5032536387443540,-0.1401545107364660,-0.4260969460010530,-0.01309454441070560,0.04560646414756780,0.03617657721042630
2022-11-11T14:53:37.034-07:00,-0.5393911004066470,-0.1886496096849440,-0.5019434690475460,-0.02135276794433590,0.1069210469722750,0.03339970111846920
2022-11-11T14:53:37.045-07:00,-0.5021429061889650,-0.2399917840957640,-0.5803698897361760,-0.03599256277084350,0.1891714334487920,0.009584322571754460
2022-11-11T14:53:37.054-07:00,-0.3847332000732420,-0.2934057116508480,-0.6852342486381530,-0.05057758092880250,0.2624836564064030,-0.03984975814819340
2022-11-11T14:53:37.064-07:00,-0.1940038651227950,-0.3503485023975370,-0.801738440990448,-0.07339060306549070,0.3153174221515660,-0.0958789736032486
2022-11-11T14:53:37.074-07:00,0.04935338348150250,-0.3736468851566320,-0.9450786113739010,-0.1047942638397220,0.3611748218536380,-0.1150547340512280
2022-11-11T14:53:37.084-07:00,0.0801386684179306,-0.4333650171756740,-1.224481821060180,-0.1276536583900450,0.4449124038219450,-0.1393630355596540
2022-11-11T14:53:37.095-07:00,-0.2167910039424900,-0.5874677896499630,-1.609753847122190,-0.1218222379684450,0.5914424061775210,-0.1260279268026350
2022-11-11T14:53:37.104-07:00,-0.6744109988212590,-0.8097277879714970,-1.918010711669920,-0.0699736475944519,0.7907203435897830,-0.1108928918838500
2022-11-11T14:53:37.115-07:00,-1.092888355255130,-1.026976108551030,-2.307487487792970,0.02163219451904300,1.010627031326290,-0.1532829999923710
2022-11-11T14:53:37.124-07:00,-1.601842045784000,-1.369576573371890,-2.93945574760437,0.1124807000160220,1.152673721313480,-0.1452220678329470
2022-11-11T14:53:37.134-07:00,-2.486335039138790,-1.853541374206540,-3.757823467254640,0.1877807378768920,1.257365822792050,-0.03021587431430820
2022-11-11T14:53:37.144-07:00,-3.407394647598270,-1.984238386154180,-4.447052955627440,0.2266244888305660,1.396579027175900,0.05002225190401080
2022-11-11T14:53:37.155-07:00,-3.696880102157590,-1.433465719223020,-4.909629344940190,0.1574506163597110,1.593724727630620,0.06884646415710450
2022-11-11T14:53:37.164-07:00,-3.443348407745360,-0.4630583226680760,-5.358480453491210,-0.0317118763923645,1.819035768508910,0.066940538585186
2022-11-11T14:53:37.175-07:00,-2.755549430847170,0.5868841409683230,-5.853644847869870,-0.187495231628418,2.103158950805660,0.003134012222290040
2022-11-11T14:53:37.185-07:00,-1.664750576019290,1.431857824325560,-6.344765663146970,-0.1955069303512570,2.329837799072270,0.00578702986240387
2022-11-11T14:53:37.195-07:00,-0.5811974406242370,2.029407978057860,-6.71597957611084,0.005496382713317870,2.427098512649540,0.08256949484348300
2022-11-11T14:53:37.205-07:00,0.09589654952287670,2.281656265258790,-7.141765117645260,0.3342546820640560,2.48328685760498,0.3405646085739140
2022-11-11T14:53:37.215-07:00,0.2961385548114780,2.505606889724730,-7.639636993408200,0.6603447794914250,2.451921939849850,0.722015380859375
2022-11-11T14:53:37.225-07:00,0.3636383414268490,2.826627969741820,-8.108107566833500,0.8847373723983770,2.359111309051510,0.9705231189727780
2022-11-11T14:53:37.235-07:00,0.4196781814098360,3.242464780807500,-8.585775375366210,0.9950395822525020,2.22318959236145,1.023516297340390
2022-11-11T14:53:37.245-07:00,0.752419650554657,3.512325763702390,-8.816775321960450,1.074935674667360,2.109966278076170,0.9682592749595640
2022-11-11T14:53:37.255-07:00,1.053824782371520,3.531355619430540,-9.132882118225100,1.172104477882390,2.024963855743410,0.893344521522522
2022-11-11T14:53:37.265-07:00,1.31254518032074,3.773781061172490,-9.347959518432620,1.30979311466217,1.817327737808230,0.945188045501709
2022-11-11T14:53:37.275-07:00,1.844815254211430,3.962119817733770,-9.299747467041020,1.438686609268190,1.611831903457640,0.8987047672271730
2022-11-11T14:53:37.285-07:00,2.796658039093020,3.729098558425900,-9.094243049621580,1.644073605537420,1.428466320037840,0.7978396415710450
2022-11-11T14:53:37.295-07:00,3.417084455490110,3.177718877792360,-8.910597801208500,1.948113918304440,1.17622983455658,0.7403604984283450
2022-11-11T14:53:37.306-07:00,3.601548433303830,2.736857414245610,-8.474917411804200,2.24376392364502,0.8628082275390630,0.7464646100997930
2022-11-11T14:53:37.316-07:00,3.46855354309082,2.132585525512700,-7.675805568695070,2.445496559143070,0.4639711976051330,0.7025729417800900
2022-11-11T14:53:37.325-07:00,3.217548370361330,1.538648843765260,-7.038110256195070,2.590741157531740,-0.02253216505050660,0.5947520732879640
2022-11-11T14:53:37.336-07:00,2.827787637710570,1.027042746543880,-6.368758678436280,2.623071670532230,-0.6651591062545780,0.5202920436859130
2022-11-11T14:53:37.346-07:00,2.284801721572880,0.419404923915863,-5.72310733795166,2.533447742462160,-1.279838681221010,0.4816691875457760
2022-11-11T14:53:37.356-07:00,1.220026731491090,0.09370832890272140,-5.368351936340330,2.432894468307500,-1.833608150482180,0.4202250242233280
2022-11-11T14:53:37.366-07:00,0.3812312185764310,0.1312993466854100,-4.587300777435300,2.258211135864260,-2.132567644119260,0.281218409538269
2022-11-11T14:53:37.376-07:00,0.05520012229681020,0.2808611392974850,-3.577915191650390,2.073739767074590,-1.949649095535280,0.1420117020607000
2022-11-11T14:53:37.386-07:00,-0.1607720553874970,0.461011677980423,-2.643874645233150,1.920911312103270,-1.711602926254270,0.1044775918126110
2022-11-11T14:53:37.396-07:00,-0.3781198263168340,0.4927371144294740,-1.930902242660520,1.805148124694820,-1.638313174247740,0.1349143385887150
2022-11-11T14:53:37.406-07:00,-0.6260260343551640,0.4680003821849820,-1.479248285293580,1.727308988571170,-1.71399712562561,0.1503423452377320
2022-11-11T14:53:37.416-07:00,-0.5626412034034730,0.4580076634883880,-0.9340301752090450,1.644148945808410,-1.650431156158450,0.1057452037930490
2022-11-11T14:53:37.426-07:00,-0.1568026840686800,0.6277927756309510,-0.4705352485179900,1.525802135467530,-1.359117984771730,0.06556423008441930
2022-11-11T14:53:37.436-07:00,0.3330402374267580,0.9402737021446230,-0.07090184092521670,1.297122955322270,-1.032367467880250,-0.0362597182393074
2022-11-11T14:53:37.446-07:00,0.6071574091911320,1.105108499526980,0.353183388710022,0.9338222742080690,-0.7476255893707280,-0.1521574854850770
2022-11-11T14:53:37.456-07:00,0.518894374370575,1.041288256645200,0.4545209109783170,0.653271496295929,-0.5695712566375730,-0.1578224301338200
2022-11-11T14:53:37.466-07:00,0.1562494188547130,0.907437264919281,0.3667601943016050,0.5216196179389950,-0.5405815243721010,-0.08187516033649450
2022-11-11T14:53:37.480-07:00,-0.1838248074054720,0.8246763348579410,0.348735123872757,0.4657192230224610,-0.4898939728736880,-0.05449795722961430
2022-11-11T14:53:37.497-07:00,-0.3184971511363980,0.7261939644813540,0.3719267249107360,0.4463796615600590,-0.3754778504371640,-0.03126955032348630
2022-11-11T14:53:37.499-07:00,-0.2680094540119170,0.5926463007926940,0.3550494909286500,0.4563349485397340,-0.25710529088974,0.002335786819458010
2022-11-11T14:53:37.506-07:00,0.07691500335931780,0.5210138559341430,0.374251663684845,0.4495418071746830,-0.141387939453125,0.000778496265411377
2022-11-11T14:53:37.516-07:00,0.5678786039352420,0.4450146555900570,0.3991269171237950,0.3861904740333560,-0.04365307092666630,-0.04303358495235440
2022-11-11T14:53:37.526-07:00,0.8607032299041750,0.3768821954727170,0.3780432045459750,0.2897470593452450,-0.007646560668945310,-0.0883268415927887
2022-11-11T14:53:37.536-07:00,0.8629876971244810,0.326916515827179,0.3848510384559630,0.1909903883934020,-0.03277164697647100,-0.1279071420431140
2022-11-11T14:53:37.546-07:00,0.5492463707923890,0.2421989291906360,0.39659583568573,0.1057999134063720,-0.0713689923286438,-0.1778189986944200
2022-11-11T14:53:37.556-07:00,0.1145156770944600,0.1447141915559770,0.4114514887332920,0.06314951181411740,-0.1218083500862120,-0.1620230078697210
2022-11-11T14:53:37.566-07:00,-0.1544164568185810,0.05287826806306840,0.4767279624938970,0.0410912036895752,-0.1509157419204710,-0.1464905738830570
2022-11-11T14:53:37.576-07:00,-0.221001073718071,-0.03231944888830190,0.5311450958251950,0.02126932144165040,-0.1345353126525880,-0.1665300130844120
2022-11-11T14:53:37.586-07:00,-0.2512162625789640,-0.09966623038053510,0.4982212781906130,-0.007077872753143310,-0.06254583597183230,-0.1702886074781420
2022-11-11T14:53:37.597-07:00,-0.1938512474298480,-0.1481868922710420,0.3928698301315310,-0.03297603130340580,0.04467225074768070,-0.1481214761734010
2022-11-11T14:53:37.606-07:00,-0.06030939519405370,-0.1955741494894030,0.2602398693561550,-0.04218727350234990,0.120231032371521,-0.09515652060508730
2022-11-11T14:53:37.616-07:00,0.1718474179506300,-0.2300421148538590,0.1904458850622180,-0.02795755863189700,0.1490583419799810,-0.05160021781921390
2022-11-11T14:53:37.626-07:00,0.3573018014431,-0.2343805283308030,0.1596133857965470,-0.01871931552886960,0.1590951681137090,-0.05038748681545260
2022-11-11T14:53:37.637-07:00,0.4147041141986850,-0.2041493952274320,0.1282141953706740,-0.0335577130317688,0.1683741807937620,-0.03196872770786290
2022-11-11T14:53:37.646-07:00,0.2880674302577970,-0.1764605790376660,0.08364646136760710,-0.05573290586471560,0.1743580102920530,-0.008188650012016300
2022-11-11T14:53:37.656-07:00,0.08996713161468510,-0.151636466383934,0.0381024107336998,-0.06054854393005370,0.1612520813941960,0.004060745239257810
2022-11-11T14:53:37.666-07:00,-0.06732499599456790,-0.1204303652048110,0.01665198057889940,-0.05984693765640260,0.09992164373397830,0.02179886400699620
2022-11-11T14:53:37.676-07:00,-0.1309638917446140,-0.08553363382816320,0.001516970340162520,-0.06458044052124020,0.05167949199676510,0.02902242541313170
2022-11-11T14:53:37.686-07:00,-0.0771217942237854,-0.0563194565474987,-0.004915894940495490,-0.07435965538024900,0.0453382134437561,0.01598186790943150
2022-11-11T14:53:37.697-07:00,0.04806248843669890,-0.04824688285589220,-0.0255332887172699,-0.07632464170455930,0.07075607776641850,0.008094564080238340
2022-11-11T14:53:37.707-07:00,0.2050256282091140,-0.03732861950993540,-0.05470103025436400,-0.066680908203125,0.09069716930389400,-0.001612365245819090
2022-11-11T14:53:37.717-07:00,0.3349716365337370,-0.009951324202120300,-0.07275193184614180,-0.06405377388000490,0.07896775007247930,0.003023341298103330
2022-11-11T14:53:37.727-07:00,0.3875365257263180,0.03168912976980210,-0.08842676877975460,-0.07079815864562990,0.03971397876739500,0.01736825704574590
2022-11-11T14:53:37.737-07:00,0.4078106284141540,0.08446072787046430,-0.09783465415239330,-0.06955218315124510,7.24196434020996E-05,0.007552385330200200
2022-11-11T14:53:37.747-07:00,0.41913241147995,0.08956238627433780,-0.08654630929231640,-0.05128532648086550,-0.03221094608306890,0.002938553690910340
2022-11-11T14:53:37.757-07:00,0.359275221824646,0.08014411479234700,-0.07363450527191160,-0.01313793659210210,-0.03981655836105350,-0.001280128955841060
2022-11-11T14:53:37.767-07:00,0.2741533815860750,0.06123596802353860,-0.05323842167854310,0.01142287254333500,-0.03232616186141970,0.006598547101020810
2022-11-11T14:53:37.777-07:00,0.2199628353118900,0.00662305811420083,-0.0452159158885479,0.01881551742553710,-0.02818632125854490,0.00541648268699646
2022-11-11T14:53:37.787-07:00,0.1452124714851380,-0.02379852905869480,-0.06292726844549180,0.02240949869155880,-0.0598415732383728,0.0077485591173172
2022-11-11T14:53:37.797-07:00,0.09858638048172000,-0.02643559128046040,-0.0326969251036644,0.02268773317337040,-0.09416484832763670,0.01945413649082180
2022-11-11T14:53:37.807-07:00,0.1508525162935260,-0.04324892535805700,0.01283141039311890,0.02414125204086300,-0.07592904567718510,-0.001480281352996830
2022-11-11T14:53:37.817-07:00,0.2079767882823940,-0.07089333981275560,0.006935704499483110,0.02603280544281010,-0.0455927848815918,-0.01494419574737550
2022-11-11T14:53:37.827-07:00,0.2180665135383610,-0.08430801331996920,0.009165302850306030,0.0263751745223999,-0.03800630569458010,-0.00212782621383667
2022-11-11T14:53:37.837-07:00,0.2645431756973270,-0.07374724745750430,0.03921294957399370,0.02070450782775880,-0.03236085176467900,0.01030659675598150
2022-11-11T14:53:37.847-07:00,0.3030054569244390,-0.04797407239675520,0.04194588586688040,0.01352781057357790,-0.05231213569641110,0.003815412521362310
2022-11-11T14:53:37.857-07:00,0.2732299864292150,-0.03147818893194200,0.04466470703482630,0.00897902250289917,-0.07544279098510740,0.004755660891532900
2022-11-11T14:53:37.867-07:00,0.1769033223390580,-0.01965814828872680,0.05117666721343990,0.010292649269104,-0.06097894906997680,0.01240836083889010
2022-11-11T14:53:37.877-07:00,0.08318322151899340,-0.01987332850694660,0.02635840326547620,0.009550273418426510,-0.02828723192214970,0.006762579083442690
2022-11-11T14:53:37.887-07:00,0.02358580566942690,-0.02733750455081460,0.004974019713699820,0.01823258399963380,-0.02585262060165410,0.00758969783782959
2022-11-11T14:53:37.898-07:00,-0.02428025379776960,-0.04385709390044210,0.01186867710202930,0.03598290681838990,-0.02826380729675290,0.0004351288080215450
2022-11-11T14:53:37.907-07:00,-0.1085212007164960,-0.06132014095783230,-0.004171009175479410,0.0497174859046936,-0.02101558446884160,0.01107724010944370
2022-11-11T14:53:37.917-07:00,-0.1546660512685780,-0.08232475072145460,-0.02383152954280380,0.05342036485672000,0.0004019737243652340,0.04063285887241360
2022-11-11T14:53:37.928-07:00,-0.1234691515564920,-0.09564279019832610,-0.03544024750590320,0.05376112461090090,0.016884446144104,0.04173940420150760
2022-11-11T14:53:37.937-07:00,-0.05554469674825670,-0.09344648569822310,-0.03416912257671360,0.04200053215026860,0.01585406064987180,0.0188986212015152
2022-11-11T14:53:37.947-07:00,0.04301666095852850,-0.1145221069455150,-0.04641406983137130,0.02751296758651730,0.006550908088684080,-0.006618604063987730
2022-11-11T14:53:37.957-07:00,0.04198841378092770,-0.1332151144742970,-0.06086597964167600,0.02401530742645260,-0.02397960424423220,-0.004016980528831480
2022-11-11T14:53:37.967-07:00,-0.03483259677886960,-0.1312488913536070,-0.05024076625704770,0.03405708074569700,-0.04727154970169070,0.008855715394020080
2022-11-11T14:53:37.980-07:00,-0.1051150113344190,-0.1252210885286330,-0.01921440660953520,0.04287809133529660,-0.05432701110839840,0.001878261566162110
2022-11-11T14:53:37.995-07:00,-0.1454387307167050,-0.1220854818820950,0.004896255210042,0.05434173345565800,-0.06949949264526370,-0.00149071216583252
2022-11-11T14:53:37.998-07:00,-0.1692402064800260,-0.1043272614479070,0.03101813793182370,0.05789816379547120,-0.07697832584381100,-0.002177596092224120
2022-11-11T14:53:38.008-07:00,-0.130582794547081,-0.08647932112216950,0.06276301294565200,0.05991774797439580,-0.07481592893600460,-0.001078203320503240
2022-11-11T14:53:38.018-07:00,-0.03984782844781880,-0.0665503516793251,0.09127162396907810,0.06867688894271850,-0.07631403207778930,-0.01001086831092830
2022-11-11T14:53:38.027-07:00,-0.007357398048043250,-0.04684655740857120,0.1226567104458810,0.08422756195068360,-0.09033745527267460,-0.01369881629943850
2022-11-11T14:53:38.038-07:00,0.009662864729762080,-0.02176410891115670,0.1827871650457380,0.1051769852638250,-0.09964776039123540,-0.01426249742507940
2022-11-11T14:53:38.048-07:00,0.04869332164525990,-0.008276495151221750,0.2527265548706060,0.1193638443946840,-0.1061792969703670,-0.01659303903579710
2022-11-11T14:53:38.058-07:00,0.06207969784736630,-0.002588782226666810,0.2923224568367000,0.1227297782897950,-0.1257838606834410,-0.01073445379734040
2022-11-11T14:53:38.068-07:00,0.07317459583282470,0.01114044524729250,0.3496347367763520,0.1219914555549620,-0.1446435451507570,0.004961848258972170
2022-11-11T14:53:38.078-07:00,0.1034182533621790,0.02435132302343850,0.4071962833404540,0.1116048097610470,-0.1541256308555600,-0.009271025657653810
2022-11-11T14:53:38.088-07:00,0.08929721266031270,0.02495416253805160,0.4547891020774840,0.1074444651603700,-0.1610650420188900,-0.01587150990962980
2022-11-11T14:53:38.098-07:00,0.06914427131414410,0.002304510213434700,0.5194053649902340,0.11395263671875,-0.1540606021881100,-0.007827997207641600
2022-11-11T14:53:38.108-07:00,0.05917952209711080,-0.007149445358663800,0.5755594372749330,0.1227763891220090,-0.1469929218292240,-0.002991259098052980
2022-11-11T14:53:38.119-07:00,-0.004163233563303950,0.002047515008598570,0.6209338903427120,0.125946581363678,-0.1666929125785830,-0.0009657591581344600
2022-11-11T14:53:38.128-07:00,-0.05699016526341440,0.02181928977370260,0.6883382201194760,0.1286662817001340,-0.175836980342865,-0.007548794150352480
2022-11-11T14:53:38.138-07:00,-0.06559324264526370,0.0263487920165062,0.7711444497108460,0.1362542510032650,-0.1662800312042240,-0.01275742053985600
2022-11-11T14:53:38.148-07:00,-0.0773468017578125,0.02850538492202760,0.8314386606216430,0.1384690999984740,-0.1498503088951110,-0.01017926633358000
2022-11-11T14:53:38.159-07:00,-0.04379762709140780,0.04458155855536460,0.8736651539802550,0.1303695440292360,-0.1395261287689210,0.0007794052362442020
2022-11-11T14:53:38.168-07:00,0.05360785126686100,0.05593318492174150,0.9118245840072630,0.120919406414032,-0.1496847867965700,0.02228623628616330
2022-11-11T14:53:38.178-07:00,0.07036685943603520,0.05085799843072890,0.9221983551979070,0.1212133765220640,-0.1708511114120480,0.04220925271511080
2022-11-11T14:53:38.188-07:00,-0.04944955557584760,0.04505710303783420,0.9462049603462220,0.1321596503257750,-0.1768714785575870,0.0722581148147583
2022-11-11T14:53:38.199-07:00,-0.2145418375730520,0.04221124947071080,1.016084671020510,0.1454647779464720,-0.1618140339851380,0.0921507328748703
2022-11-11T14:53:38.208-07:00,-0.3542090952396390,0.02789958380162720,1.082303404808040,0.1507929563522340,-0.1439136862754820,0.09672214090824130
2022-11-11T14:53:38.218-07:00,-0.4847119748592380,0.01536142267286780,1.126360893249510,0.1357035636901860,-0.144127368927002,0.08427955210208890
2022-11-11T14:53:38.229-07:00,-0.5908880829811100,0.03258608281612400,1.157370924949650,0.09934753179550170,-0.1300991773605350,0.07480788230896000
2022-11-11T14:53:38.239-07:00,-0.6161218285560610,0.07763584703207020,1.180053114891050,0.05252635478973390,-0.1046023964881900,0.0679623931646347
2022-11-11T14:53:38.248-07:00,-0.4757223129272460,0.135048508644104,1.215482950210570,0.01631981134414670,-0.07714641094207760,0.05289018154144290
2022-11-11T14:53:38.258-07:00,-0.2244192510843280,0.1748627722263340,1.259691476821900,0.002524435520172120,-0.04369848966598510,0.01937843859195710
2022-11-11T14:53:38.268-07:00,0.01545857079327110,0.1745876967906950,1.262956261634830,0.005427896976470950,-0.01241016387939450,-0.01354008913040160
2022-11-11T14:53:38.279-07:00,0.215933620929718,0.1742452085018160,1.234141707420350,0.01482900977134710,-0.01906126737594600,-0.01044410467147830
2022-11-11T14:53:38.289-07:00,0.3368680775165560,0.1743538081645970,1.237231969833370,0.02607995271682740,-0.0516517162322998,0.01105093955993650
2022-11-11T14:53:38.299-07:00,0.3667990863323210,0.1728363335132600,1.248396158218380,0.0391545295715332,-0.06964349746704100,0.03014683723449710
2022-11-11T14:53:38.309-07:00,0.2791644632816320,0.1572659909725190,1.243655323982240,0.06722405552864080,-0.08295488357543950,0.03571879863739010
2022-11-11T14:53:38.319-07:00,0.05820173770189290,0.1110481694340710,1.25559401512146,0.1094350516796110,-0.1003753542900090,0.03650954365730290
2022-11-11T14:53:38.329-07:00,-0.2442387193441390,0.04011024534702300,1.316927313804630,0.1488451063632970,-0.1115480661392210,0.05505883693695070
2022-11-11T14:53:38.339-07:00,-0.4793529510498050,-0.01799273863434790,1.425420999526980,0.1615147590637210,-0.1044380664825440,0.0567939281463623
2022-11-11T14:53:38.349-07:00,-0.4872966706752780,-0.00329392054118216,1.515951752662660,0.1413010954856870,-0.08257925510406490,0.02025675773620610
2022-11-11T14:53:38.359-07:00,-0.2897122204303740,0.0742725133895874,1.563982963562010,0.09975466132164000,-0.06103694438934330,-0.02931387722492220
2022-11-11T14:53:38.369-07:00,0.100482851266861,0.1572556495666500,1.622040867805480,0.0686592161655426,-0.04177868366241460,-0.05756182968616490
2022-11-11T14:53:38.380-07:00,0.5930081009864810,0.2180145978927610,1.695891141891480,0.06429034471511840,-0.02159023284912110,-0.07165426015853880
2022-11-11T14:53:38.389-07:00,0.9592363238334660,0.2590777277946470,1.714228391647340,0.07743269205093380,-0.01121234893798830,-0.07220728695392610
2022-11-11T14:53:38.399-07:00,1.052674174308780,0.2483060210943220,1.696240901947020,0.1061208546161650,-0.02925229072570800,-0.03201045095920560
2022-11-11T14:53:38.409-07:00,0.9459693431854250,0.2131245583295820,1.72524619102478,0.1368267834186550,-0.08339500427246090,0.01705455780029300
2022-11-11T14:53:38.419-07:00,0.6559433937072750,0.1515384316444400,1.817397117614750,0.1618950963020330,-0.1513846516609190,0.06973649561405180
2022-11-11T14:53:38.429-07:00,0.1016106680035590,0.05427043884992600,1.863321185112,0.1821375489234920,-0.2088763117790220,0.114571213722229
2022-11-11T14:53:38.439-07:00,-0.6116717457771300,-0.01670386828482150,1.872255563735960,0.1817599833011630,-0.2474902868270870,0.1413463801145550
2022-11-11T14:53:38.449-07:00,-1.184016466140750,-0.006703133229166270,1.937665939331060,0.1628798842430120,-0.2613990306854250,0.1222105622291570
2022-11-11T14:53:38.459-07:00,-1.452076196670530,0.07374057173728940,2.00544285774231,0.1271277219057080,-0.2405094504356380,0.08364285528659820
2022-11-11T14:53:38.469-07:00,-1.367208361625670,0.1978614032268520,2.038314342498780,0.09657551348209380,-0.1873319745063780,0.02817173302173620
2022-11-11T14:53:38.480-07:00,-0.9336955547332760,0.305300235748291,2.098069429397580,0.08654548227787020,-0.1000650525093080,-0.02482746541500090
2022-11-11T14:53:38.496-07:00,-0.2928248047828670,0.3389349579811100,2.188274621963500,0.1045576184988020,0.01417708396911620,-0.06319858133792880
2022-11-11T14:53:38.500-07:00,0.2658512592315670,0.3058569133281710,2.26059103012085,0.1350042074918750,0.1141522526741030,-0.08525316417217260
2022-11-11T14:53:38.509-07:00,0.5728058218955990,0.2487126737833020,2.28797721862793,0.1549829989671710,0.1705558300018310,-0.05734895169734960
2022-11-11T14:53:38.520-07:00,0.6628273129463200,0.2014104127883910,2.318357467651370,0.1599834561347960,0.1574463844299320,-0.0105886310338974
2022-11-11T14:53:38.529-07:00,0.6518198847770690,0.2118444591760640,2.385947704315190,0.1512172967195510,0.1007621288299560,0.04318127036094670
2022-11-11T14:53:38.539-07:00,0.6060910224914550,0.2549946010112760,2.445621728897100,0.1335229277610780,0.01941722631454470,0.1145040541887280
2022-11-11T14:53:38.550-07:00,0.5145668983459470,0.2622430026531220,2.445778131484990,0.1234495937824250,-0.07636725902557370,0.2049658447504040
2022-11-11T14:53:38.560-07:00,0.3438092470169070,0.2154233157634740,2.425539493560790,0.1278211772441860,-0.1590604186058040,0.2583892345428470
2022-11-11T14:53:38.569-07:00,0.1606211811304090,0.1823839992284780,2.450159788131710,0.1473194658756260,-0.1977342963218690,0.2145663499832150
2022-11-11T14:53:38.579-07:00,-0.003618884831666950,0.1896152943372730,2.504899978637700,0.1613605618476870,-0.1801033020019530,0.1347125917673110
2022-11-11T14:53:38.590-07:00,-0.1524961441755300,0.1867150068283080,2.577792167663570,0.1637293696403500,-0.1222617626190190,0.07835771143436430
2022-11-11T14:53:38.600-07:00,-0.3495053350925450,0.1549397557973860,2.621425628662110,0.1524021923542020,-0.04822999238967900,0.05602015554904940
2022-11-11T14:53:38.609-07:00,-0.7161637544631960,0.108435645699501,2.616306781768800,0.1400767117738720,0.002151131629943850,0.05107761919498440
2022-11-11T14:53:38.620-07:00,-1.18882429599762,0.08122453093528750,2.678345680236820,0.1290955096483230,0.02822679281234740,0.06688930094242100
2022-11-11T14:53:38.629-07:00,-1.640122413635250,0.04746276885271070,2.776301622390750,0.1205216646194460,0.01828998327255250,0.09764409065246580
2022-11-11T14:53:38.640-07:00,-2.121096134185790,-0.0004328535869717600,2.811384201049810,0.1130727529525760,-0.03946793079376220,0.1105809211730960
2022-11-11T14:53:38.650-07:00,-2.464150428771970,0.005471174605190750,2.828231811523440,0.1058076322078710,-0.09714961051940920,0.09588044881820680
2022-11-11T14:53:38.660-07:00,-2.469467639923100,0.08022663742303850,2.869131326675420,0.09368491172790530,-0.1273519396781920,0.09622764587402340
2022-11-11T14:53:38.670-07:00,-2.172358512878420,0.1165043190121650,2.901233196258550,0.08815506100654600,-0.08925819396972660,0.08539021015167240
2022-11-11T14:53:38.680-07:00,-1.581967711448670,0.08036708831787110,2.904770851135250,0.09048378467559810,0.0243983268737793,0.07996785640716550
2022-11-11T14:53:38.690-07:00,-0.8501858711242680,0.006501917727291580,2.869305849075320,0.09610822796821590,0.1416932344436650,0.06898307800292970
2022-11-11T14:53:38.700-07:00,-0.0999869704246521,-0.01447447016835210,2.92337703704834,0.09573894739151000,0.2174047827720640,0.05345356464385990
2022-11-11T14:53:38.710-07:00,0.4017147421836850,0.003216409590095280,2.965007066726690,0.07405814528465270,0.2422195672988890,0.07549357414245610
2022-11-11T14:53:38.720-07:00,0.349365234375,0.02244816161692140,2.883585691452030,0.03791067004203800,0.2241610884666440,0.1228009462356570
2022-11-11T14:53:38.730-07:00,0.03122268430888650,0.03659327328205110,2.828424453735350,0.01815587282180790,0.193507194519043,0.1422179937362670
2022-11-11T14:53:38.740-07:00,-0.2279164791107180,0.1027046516537670,2.892274618148800,0.02112343907356260,0.1557310223579410,0.07880663871765140
2022-11-11T14:53:38.750-07:00,-0.3526955544948580,0.1936133801937100,2.962274789810180,0.02460974454879760,0.1353102922439580,-0.01342427544295790
2022-11-11T14:53:38.760-07:00,-0.428330659866333,0.25285804271698,2.897994995117190,0.0127866268157959,0.1518574953079220,-0.05620986223220830
2022-11-11T14:53:38.770-07:00,-0.5000680088996890,0.2885061204433440,2.800119161605840,0.01236128807067870,0.1982787251472470,-0.09604501724243160
2022-11-11T14:53:38.780-07:00,-0.4871660470962520,0.3286758959293370,2.780187368392940,0.02434772253036500,0.2325714826583860,-0.1021521091461180
2022-11-11T14:53:38.790-07:00,-0.5081284642219540,0.3154641091823580,2.787889719009400,0.0353095531463623,0.221621036529541,-0.06954789161682130
2022-11-11T14:53:38.800-07:00,-0.527277410030365,0.2761305570602420,2.78088641166687,0.0381508469581604,0.1743509769439700,-0.0122643718495965
2022-11-11T14:53:38.810-07:00,-0.5207564830780030,0.2287245690822600,2.683721542358400,0.02561438083648680,0.1101047992706300,0.0366971492767334
2022-11-11T14:53:38.820-07:00,-0.7249889969825750,0.1601636111736300,2.535110473632810,0.01735872030258180,0.069602370262146,0.04172515869140630
2022-11-11T14:53:38.830-07:00,-1.061842560768130,0.1021955236792560,2.446956872940060,0.02714115381240850,0.1258355975151060,0.02238273993134500
2022-11-11T14:53:38.840-07:00,-1.245163083076480,0.05242130532860760,2.41938853263855,0.0470130443572998,0.215609073638916,-0.009799715131521230
2022-11-11T14:53:38.850-07:00,-1.343265414237980,0.006300416309386490,2.338740825653080,0.07098662853240970,0.2705519795417790,-0.08636844158172610
2022-11-11T14:53:38.860-07:00,-1.393645524978640,-0.02743677422404290,2.225327730178830,0.08535003662109380,0.3314440846443180,-0.1386860609054570
2022-11-11T14:53:38.870-07:00,-1.297357082366940,-0.03723294660449030,2.151311159133910,0.08370602130889890,0.4052803516387940,-0.1299937963485720
2022-11-11T14:53:38.881-07:00,-1.160204768180850,-0.02167928591370580,2.095716238021850,0.07852059602737430,0.4342920184135440,-0.0978480651974678
2022-11-11T14:53:38.891-07:00,-0.9734184741973880,0.0147198336198926,2.010720729827880,0.06469559669494630,0.4117302298545840,-0.03202689439058300
2022-11-11T14:53:38.901-07:00,-0.8026262521743770,0.07311389595270160,1.901489019393920,0.04748201370239260,0.3354458212852480,-0.0002329424023628240
2022-11-11T14:53:38.911-07:00,-0.6104404926300050,0.124731257557869,1.791801452636720,0.04190599918365480,0.2644703984260560,0.05476128309965130
2022-11-11T14:53:38.921-07:00,-0.4002535045146940,0.16860631108284,1.710817575454710,0.04812592267990110,0.2294574379920960,0.05767320841550830
2022-11-11T14:53:38.931-07:00,-0.1066733300685880,0.2114435732364660,1.6759352684021,0.06668615341186520,0.2537770867347720,0.01302456855773930
2022-11-11T14:53:38.941-07:00,0.2507950663566590,0.2093964070081710,1.639351487159730,0.0818171501159668,0.317796528339386,-0.02757419645786290
2022-11-11T14:53:38.951-07:00,0.5389909744262700,0.1910015493631360,1.554227471351620,0.09352660179138180,0.3730244040489200,-0.08401642739772800
2022-11-11T14:53:38.961-07:00,0.7030960321426390,0.184668555855751,1.502092719078060,0.1044641733169560,0.4030907154083250,-0.1441407203674320
2022-11-11T14:53:38.971-07:00,0.7915112972259520,0.162916511297226,1.487550258636480,0.1030093431472780,0.3988854885101320,-0.1361474990844730
2022-11-11T14:53:38.995-07:00,0.756105363368988,0.1198276430368420,1.442161679267880,0.09269267320632940,0.3397395014762880,-0.103052981197834
2022-11-11T14:53:38.996-07:00,0.5724408030509950,0.07368700951337810,1.355681657791140,0.06918174028396610,0.243798166513443,-0.05017126351594930
2022-11-11T14:53:39.001-07:00,0.3361707031726840,0.05722734704613690,1.28984534740448,0.04445385932922360,0.1436701416969300,0.009614467620849610
2022-11-11T14:53:39.011-07:00,0.07972360402345660,0.08774943649768830,1.234485507011410,0.01696497201919560,0.06190252304077150,0.05854522436857220
2022-11-11T14:53:39.021-07:00,-0.1913824528455730,0.1305746585130690,1.181694984436040,-0.007966220378875730,0.02199277281761170,0.08945024013519290
2022-11-11T14:53:39.031-07:00,-0.4331651628017430,0.1556572765111920,1.107209801673890,-0.0161781907081604,0.02842974662780760,0.09689105302095410
2022-11-11T14:53:39.041-07:00,-0.5254170298576360,0.1679253876209260,1.036216855049130,-0.008417844772338870,0.05866453051567080,0.07769870758056640
2022-11-11T14:53:39.051-07:00,-0.4538249969482420,0.1940543055534360,0.9806581735610960,0.003493905067443850,0.09956705570220950,0.04179535806179050
2022-11-11T14:53:39.061-07:00,-0.2643506824970250,0.2142889946699140,0.9365437626838680,0.01363390684127810,0.144111156463623,-0.006345152854919430
2022-11-11T14:53:39.072-07:00,0.01880779676139360,0.2256766706705090,0.8972629308700560,0.02137833833694460,0.1976678967475890,-0.04308725893497470
2022-11-11T14:53:39.082-07:00,0.3619294464588170,0.2336461842060090,0.8792818188667300,0.02608078718185430,0.2280898988246920,-0.07426370680332180
2022-11-11T14:53:39.092-07:00,0.6933948993682860,0.255075991153717,0.893302857875824,0.03159767389297490,0.2359440922737120,-0.1005589812994000
2022-11-11T14:53:39.102-07:00,0.9649473428726200,0.2685481309890750,0.9328536987304690,0.02710402011871340,0.2295180559158330,-0.1041857153177260
2022-11-11T14:53:39.111-07:00,1.163453578948980,0.2591975629329680,0.9746408462524410,0.01385027170181270,0.2120064198970800,-0.08164739608764650
2022-11-11T14:53:39.122-07:00,1.246494650840760,0.2480948269367220,1.007799029350280,0.001145541667938230,0.1832015216350560,-0.05494964867830280
2022-11-11T14:53:39.132-07:00,1.203568577766420,0.2731767892837520,1.035572052001950,-0.0133931040763855,0.1483403146266940,-0.03071033954620360
2022-11-11T14:53:39.142-07:00,1.060494780540470,0.2978083491325380,1.043896317482000,-0.01939845085144040,0.1176920831203460,-0.01497423648834230
2022-11-11T14:53:39.152-07:00,0.8715259432792660,0.3047913908958440,1.020089268684390,-0.02430558204650880,0.0859200656414032,0.007985003292560580
2022-11-11T14:53:39.162-07:00,0.6832324862480160,0.292574942111969,0.9542535543441770,-0.0201837420463562,0.0613788366317749,0.0197145864367485
2022-11-11T14:53:39.172-07:00,0.5194380283355710,0.2663956880569460,0.8862425088882450,-0.007752299308776860,0.04722824692726140,0.004402518272399900
2022-11-11T14:53:39.182-07:00,0.4090574681758880,0.2493152767419820,0.7885252833366390,0.004124283790588380,0.05120238661766050,-0.03012345731258390
2022-11-11T14:53:39.192-07:00,0.3472041189670560,0.223514661192894,0.7006010413169860,0.02277910709381100,0.06242260336875920,-0.07356417179107670
2022-11-11T14:53:39.202-07:00,0.3167242407798770,0.1915463507175450,0.6254854798316960,0.02992421388626100,0.07377249002456670,-0.1091505289077760
2022-11-11T14:53:39.212-07:00,0.2561179399490360,0.1594866067171100,0.5321006774902340,0.02620404958724980,0.07549175620079040,-0.1172691434621810
2022-11-11T14:53:39.222-07:00,0.1460804045200350,0.1369685232639310,0.4352931976318360,0.02121663093566900,0.06217166781425480,-0.1113988161087040
2022-11-11T14:53:39.232-07:00,0.006072157993912700,0.1258705854415890,0.3575088977813720,0.01238489151000980,0.04876929521560670,-0.09386001527309420
2022-11-11T14:53:39.242-07:00,-0.1683462560176850,0.1040569022297860,0.2838959395885470,0.002679705619812010,0.03827065229415890,-0.06747603416442870
2022-11-11T14:53:39.252-07:00,-0.3308465182781220,0.06840972602367400,0.2221486866474150,-0.003129780292510990,0.02611038088798520,-0.04865122586488720
2022-11-11T14:53:39.262-07:00,-0.4395048320293430,0.03855223208665850,0.1714692711830140,-0.008023679256439210,0.01773059368133550,-0.03005729615688320
2022-11-11T14:53:39.273-07:00,-0.4982558190822600,0.02416297048330310,0.1247105449438100,-0.007942616939544680,0.0222221314907074,-0.02600586414337160
2022-11-11T14:53:39.282-07:00,-0.5103135108947750,0.0182249192148447,0.08621108531951900,-0.002701818943023680,0.04894846677780150,-0.02740930020809170
2022-11-11T14:53:39.292-07:00,-0.4763197302818300,0.009504532441496850,0.06624563038349150,0.004422783851623540,0.08322471380233770,-0.0324472188949585
2022-11-11T14:53:39.302-07:00,-0.3923982381820680,0.001202127896249290,0.0613534040749073,0.01151955127716060,0.1020813882350920,-0.03734314441680910
2022-11-11T14:53:39.312-07:00,-0.2831896245479580,-0.004850771278142930,0.04574674740433690,0.01093536615371700,0.09759756922721860,-0.03764127194881440
2022-11-11T14:53:39.322-07:00,-0.1759241819381710,-0.004377794452011590,0.03175396844744680,0.006586551666259770,0.07912939786911010,-0.03800009191036220
2022-11-11T14:53:39.332-07:00,-0.08467049151659010,0.009362852200865750,0.02799571305513380,0.001880884170532230,0.06200474500656130,-0.03683304786682130
2022-11-11T14:53:39.342-07:00,-0.04095683619380000,0.02387308329343800,0.02606199309229850,0.001474082469940190,0.06033909320831300,-0.03593885898590090
2022-11-11T14:53:39.352-07:00,-0.02651813998818400,0.02290998585522180,0.03354228287935260,0.004427611827850340,0.06491518020629880,-0.03466737270355230
2022-11-11T14:53:39.363-07:00,-0.01381672639399770,0.005392245016992090,0.05624919384717940,0.007077574729919430,0.06294715404510500,-0.0320584625005722
2022-11-11T14:53:39.373-07:00,-0.02208880521357060,-0.004882995970547200,0.07230006158351900,0.007226765155792240,0.05804002285003660,-0.03309750556945800
2022-11-11T14:53:39.383-07:00,-0.02996004372835160,0.001028422731906180,0.07218527793884280,0.002221047878265380,0.05547797679901120,-0.03096652030944820
2022-11-11T14:53:39.393-07:00,-0.04467257857322690,0.002146850805729630,0.07028910517692570,-0.003655493259429930,0.05164647102355960,-0.03076505661010740
2022-11-11T14:53:39.403-07:00,-0.06891320645809170,-0.003106500720605250,0.0572713129222393,-0.00769275426864624,0.04480895400047300,-0.03061723709106450
2022-11-11T14:53:39.412-07:00,-0.1110204458236690,-0.01615732163190840,0.0457073375582695,-0.008862972259521480,0.03834700584411620,-0.02417373657226560
2022-11-11T14:53:39.422-07:00,-0.1518027633428570,-0.02297927625477310,0.02501031197607520,-0.00904381275177002,0.02949312329292300,-0.02076638489961620
2022-11-11T14:53:39.432-07:00,-0.1920057684183120,-0.02126479893922810,-0.003002946730703120,-0.009872019290924070,0.02085161209106450,-0.01968812942504880
2022-11-11T14:53:39.443-07:00,-0.2152325361967090,-0.0255919024348259,-0.03404927998781200,-0.008920669555664060,0.01564091444015500,-0.01965902745723720
2022-11-11T14:53:39.452-07:00,-0.2486866265535360,-0.0436374843120575,-0.06062523275613790,-0.001911163330078130,0.01642084121704100,-0.01185834407806400
2022-11-11T14:53:39.463-07:00,-0.2699181437492370,-0.06587567180395130,-0.07832565903663640,0.0008590817451477050,0.02211683988571170,-0.006786949932575230
2022-11-11T14:53:39.481-07:00,-0.2718241810798650,-0.07880691438913350,-0.08819826692342760,0.002339661121368410,0.02703827619552610,-0.003142856061458590
2022-11-11T14:53:39.496-07:00,-0.2545186877250670,-0.08680944889783860,-0.09380555152893070,0.0004354715347290040,0.03071331977844240,-0.002333290874958040
2022-11-11T14:53:39.497-07:00,-0.2436536550521850,-0.08865196257829670,-0.1027465835213660,-0.00542837381362915,0.03204464912414550,-0.004014015197753910
2022-11-11T14:53:39.504-07:00,-0.2318172305822370,-0.07936099171638490,-0.09698163717985150,-0.009447872638702390,0.0335986316204071,-0.01255215704441070
2022-11-11T14:53:39.513-07:00,-0.2091200798749920,-0.06256267428398130,-0.08217792958021160,-0.01459783315658570,0.03487026691436770,-0.01366184651851650
2022-11-11T14:53:39.523-07:00,-0.1781829297542570,-0.0476822555065155,-0.06549268960952760,-0.01584774255752560,0.03527268767356870,-0.01591907441616060
2022-11-11T14:53:39.532-07:00,-0.1384516060352330,-0.03199321031570440,-0.05951149389147760,-0.01538026332855230,0.03843957185745240,-0.01658082008361820
2022-11-11T14:53:39.543-07:00,-0.09731774032115940,-0.03126589953899380,-0.05278168618679050,-0.01172918081283570,0.04110577702522280,-0.01192606240510940
2022-11-11T14:53:39.553-07:00,-0.04658965766429900,-0.03624701127409940,-0.05019229650497440,-0.00669252872467041,0.03594815731048580,-0.00980629026889801
2022-11-11T14:53:39.563-07:00,-0.02672966383397580,-0.03639508411288260,-0.04502150416374210,-0.004030346870422360,0.02758136391639710,-0.006454095244407650
2022-11-11T14:53:39.573-07:00,-0.02451321482658390,-0.03681682795286180,-0.04860478639602660,-0.005076110363006590,0.01612022519111630,-0.0001528337597846990
2022-11-11T14:53:39.583-07:00,-0.04138780385255810,-0.04041182994842530,-0.06691854447126390,-0.007138371467590330,0.006793051958084110,0.008321657776832580
2022-11-11T14:53:39.593-07:00,-0.05984959751367570,-0.03769144415855410,-0.08042237162590030,-0.01161825656890870,-0.001618653535842900,0.009157657623291020
2022-11-11T14:53:39.603-07:00,-0.0975106880068779,-0.03076935559511190,-0.08949735760688780,-0.01271677017211910,-0.006101250648498540,0.009474277496337890
2022-11-11T14:53:39.614-07:00,-0.1262432336807250,-0.02281505614519120,-0.09285213798284530,-0.013283371925354,-0.004822641611099240,0.003940097987651830
2022-11-11T14:53:39.623-07:00,-0.1186018288135530,-0.02547768503427510,-0.08952292054891590,-0.01034301519393920,-0.001868247985839840,0.003839507699012760
2022-11-11T14:53:39.633-07:00,-0.1056943163275720,-0.03440936282277110,-0.08711036294698720,-0.008015811443328860,0.001202225685119630,0.004712730646133420
2022-11-11T14:53:39.644-07:00,-0.09013959020376210,-0.02826917916536330,-0.0811866968870163,-0.003991186618804930,0.008103549480438230,0.002867802977561950
2022-11-11T14:53:39.654-07:00,-0.07790889590978620,-0.0235922671854496,-0.07089518010616300,-0.003007173538208010,0.01207980513572690,0.004097096621990200
2022-11-11T14:53:39.663-07:00,-0.06337948888540270,-0.03108560480177400,-0.06906478852033620,-0.0004936456680297850,0.009317100048065190,0.005934819579124450
2022-11-11T14:53:39.673-07:00,-0.06248789280653,-0.03325951099395750,-0.05988274142146110,0.0008994936943054200,0.005472928285598760,0.01118005812168120
2022-11-11T14:53:39.683-07:00,-0.06532762199640270,-0.02679175697267060,-0.05628907307982450,-0.002023279666900640,-0.0001392662525177000,0.01197589933872220
2022-11-11T14:53:39.694-07:00,-0.0595930702984333,-0.0154996532946825,-0.05626776441931730,-0.004693984985351560,-0.0064544677734375,0.009289875626564030
2022-11-11T14:53:39.704-07:00,-0.05828066542744640,0.001875075045973060,-0.05804728716611860,-0.005449473857879640,-0.01108890771865850,0.005510568618774410
2022-11-11T14:53:39.713-07:00,-0.06049314886331560,0.01859060488641260,-0.06511905044317250,-0.005248308181762700,-0.01090189814567570,0.0002855211496353150
2022-11-11T14:53:39.723-07:00,-0.05500064790248870,0.02425434999167920,-0.06825359165668490,-0.003145754337310790,-0.01086306571960450,-0.006409525871276860
2022-11-11T14:53:39.733-07:00,-0.0479416735470295,0.01848168298602100,-0.06205108389258390,-0.0008652806282043460,-0.01527497172355650,-0.007712468504905700
2022-11-11T14:53:39.744-07:00,-0.0593690313398838,0.01825691200792790,-0.05851920321583750,0.002125978469848630,-0.01857647299766540,-0.002987831830978390
2022-11-11T14:53:39.753-07:00,-0.07811692357063290,0.02425198629498480,-0.06186759471893310,-0.002160966396331790,-0.02110439538955690,0.001261591911315920
2022-11-11T14:53:39.764-07:00,-0.0870283916592598,0.02686401456594470,-0.06709537655115130,-0.00275111198425293,-0.02165067195892330,0.006942979991436010
2022-11-11T14:53:39.774-07:00,-0.08411316573619840,0.02161053009331230,-0.06381089985370640,0.001574873924255370,-0.02022814750671390,0.01124608516693120
2022-11-11T14:53:39.784-07:00,-0.08438640087842940,0.008276348933577540,-0.05193160846829410,0.005251526832580570,-0.01530542969703670,0.0102229118347168
2022-11-11T14:53:39.794-07:00,-0.06651562452316280,-0.003487798850983380,-0.04053860157728200,0.009248077869415280,-0.007361352443695070,0.006086483597755430
2022-11-11T14:53:39.804-07:00,-0.03700567036867140,-0.01370688062161210,-0.03479869291186330,0.01064985990524290,-0.0060538649559021,0.0035552978515625
2022-11-11T14:53:39.814-07:00,-0.01320995949208740,-0.01378554292023180,-0.02675115317106250,0.005196273326873780,-0.003246873617172240,-0.002638086676597600
2022-11-11T14:53:39.824-07:00,0.001091215759515760,-0.0007248693145811560,-0.01876752823591230,-0.0006105303764343260,-0.001151412725448610,-0.00552426278591156
2022-11-11T14:53:39.834-07:00,0.009232465177774430,0.01833514124155050,-0.01228646002709870,-0.006793200969696050,0.00020638108253479,-0.009048327803611760
2022-11-11T14:53:39.844-07:00,-0.001826044172048570,0.02981709502637390,-0.01132479310035710,-0.01062566041946410,-0.005403637886047360,-0.01122869551181790
2022-11-11T14:53:39.854-07:00,-0.00434386357665062,0.03945860266685490,-0.001455117482692000,-0.007138371467590330,-0.01071828603744510,-0.01023589074611660
2022-11-11T14:53:39.864-07:00,-0.01773902960121630,0.0451311394572258,-0.01083903200924400,-0.006089627742767330,-0.01789620518684390,-0.008673086762428280
2022-11-11T14:53:39.874-07:00,-0.02450512535870080,0.03468441963195800,-0.0138454744592309,-0.002383708953857420,-0.0169050395488739,-0.008037589490413670
2022-11-11T14:53:39.884-07:00,-0.01382158882915970,0.02015261724591260,-0.006217914633452890,-6.40749931335449E-05,-0.01285427808761600,-0.008072495460510250
2022-11-11T14:53:39.894-07:00,-0.009613026864826680,0.01633447408676150,0.001281280536204580,4.0888786315918E-05,-0.005916476249694820,-0.007239341735839840
2022-11-11T14:53:39.904-07:00,-0.01354092359542850,0.01434296276420360,-0.009074687957763670,-0.001589417457580570,0.003388106822967530,-0.006166458129882810
2022-11-11T14:53:39.914-07:00,-0.007248039357364180,0.01441263779997830,-0.02108394540846350,-0.00280994176864624,0.005549609661102300,-0.004943355917930600
2022-11-11T14:53:39.924-07:00,-0.006768937222659590,0.01053587440401320,-0.03278108313679700,-0.002278685569763180,-0.001021236181259160,-0.003691442310810090
2022-11-11T14:53:39.934-07:00,-0.007203399203717710,0.007498373277485370,-0.03178638964891430,0.0008906722068786620,-0.00653529167175293,-0.00811767578125
2022-11-11T14:53:39.944-07:00,-0.00778236985206604,-0.0003270595334470270,-0.03187800198793410,0.001154720783233640,-0.009834885597229000,-0.006240352988243100
2022-11-11T14:53:39.954-07:00,-0.02453375421464440,-0.001993299461901190,-0.0263250470161438,0.0008562207221984860,-0.005546241998672490,-0.0100247859954834
2022-11-11T14:53:39.964-07:00,-0.02813754417002200,0.0115818977355957,-0.01934676617383960,-0.000788569450378418,0.004022836685180660,-0.009446859359741210
2022-11-11T14:53:39.980-07:00,-0.03928956389427190,0.01631756313145160,-0.01479142904281620,-0.002403080463409420,0.0106607973575592,-0.01307068765163420
2022-11-11T14:53:39.995-07:00,-0.06360768526792530,0.01522273756563660,-0.03410067781805990,0.001722812652587890,0.01611870527267460,-0.01180413365364080
2022-11-11T14:53:39.997-07:00,-0.06422477215528490,-0.01484058797359470,-0.05509836971759800,0.00484079122543335,0.01320764422416690,-0.006548404693603520
2022-11-11T14:53:40.005-07:00,-0.09847568720579150,-0.07294996082782750,-0.058775395154953,0.009149551391601560,0.006796866655349730,0.001762509346008300
2022-11-11T14:53:40.014-07:00,-0.1374505460262300,-0.1177405714988710,-0.05325866118073460,0.01696950197219850,0.009304732084274290,0.007295593619346620
2022-11-11T14:53:40.024-07:00,-0.2459791600704190,-0.1559891551733020,-0.1067610308527950,0.02331775426864620,0.01875287294387820,0.009930014610290530
2022-11-11T14:53:40.035-07:00,-0.4360597133636480,-0.223738819360733,-0.2081712782382970,0.02873623371124270,0.0274982750415802,0.001856088638305660
2022-11-11T14:53:40.045-07:00,-0.6681235432624820,-0.30649334192276,-0.319720447063446,0.03287088871002200,0.02726158499717710,-0.0090341717004776
2022-11-11T14:53:40.055-07:00,-0.931019127368927,-0.3532871901988980,-0.4701901078224180,0.02819591760635380,0.01627042889595030,-0.0325169563293457
2022-11-11T14:53:40.065-07:00,-1.299965620040890,-0.4186654090881350,-0.7374082207679750,0.01696866750717160,0.003472119569778440,-0.05569292604923250
2022-11-11T14:53:40.074-07:00,-1.80026912689209,-0.5142267346382140,-1.037662863731380,0.008003771305084230,0.01350641250610350,-0.08347797393798830
2022-11-11T14:53:40.085-07:00,-2.246211051940920,-0.6005570888519290,-1.23067843914032,0.006776571273803710,0.0884992778301239,-0.1006531864404680
2022-11-11T14:53:40.095-07:00,-2.434376955032350,-0.6850697994232180,-1.34766948223114,0.0005109906196594240,0.2418313324451450,-0.08440802991390230
2022-11-11T14:53:40.105-07:00,-2.444095849990850,-0.8769257664680480,-1.599764466285710,-0.01099240779876710,0.4265846014022830,-0.05768812447786330
2022-11-11T14:53:40.114-07:00,-2.471086978912350,-1.171532154083250,-2.049779653549190,-0.01335424184799190,0.5821630954742430,-0.0450594574213028
2022-11-11T14:53:40.125-07:00,-2.591988325119020,-1.43156886100769,-2.585535526275640,0.009203255176544190,0.7189602851867680,-0.07580185681581500
2022-11-11T14:53:40.135-07:00,-2.741469383239750,-1.562648415565490,-3.078655958175660,0.02042692899703980,0.8832707405090330,-0.0838254913687706
2022-11-11T14:53:40.145-07:00,-2.466602802276610,-1.629136919975280,-3.635775089263920,0.04200971126556400,1.094524383544920,-0.04221632331609730
2022-11-11T14:53:40.155-07:00,-2.704856395721440,-1.555791974067690,-4.350255489349370,0.07166731357574460,1.332754611968990,0.01412367075681690
2022-11-11T14:53:40.165-07:00,-3.315382480621340,-1.019256353378300,-5.059460639953610,0.09760820865631100,1.714094400405880,0.0290902704000473
2022-11-11T14:53:40.175-07:00,-3.661331176757810,-0.203175276517868,-5.924137592315670,0.1456419825553890,2.026823997497560,0.04391837120056150
2022-11-11T14:53:40.185-07:00,-3.997643947601320,0.7145547866821290,-6.964945316314700,0.2398750782012940,2.16378116607666,0.2282443195581440
2022-11-11T14:53:40.195-07:00,-3.740093469619750,1.866021633148190,-7.790009021759030,0.4060916900634770,2.417155742645260,0.4506213665008550
2022-11-11T14:53:40.205-07:00,-2.648374557495120,2.976645469665530,-8.362727165222170,0.5759586095809940,2.728329658508300,0.6370100975036620
2022-11-11T14:53:40.215-07:00,-0.9276385903358460,3.827369689941410,-8.624311447143560,0.7579886317253110,2.96551251411438,0.8584599494934080
2022-11-11T14:53:40.225-07:00,0.9608648419380190,4.068212509155270,-8.940604209899900,0.966109573841095,3.087603092193600,0.9750092029571530
2022-11-11T14:53:40.236-07:00,2.350845336914060,4.119438171386720,-9.326822280883790,1.181101322174070,2.839340209960940,1.127379179000850
2022-11-11T14:53:40.245-07:00,3.023288011550900,4.032899856567380,-9.461702346801760,1.302796006202700,2.426216602325440,1.151730537414550
2022-11-11T14:53:40.255-07:00,3.21318531036377,3.548975467681890,-9.635052680969240,1.290825724601750,2.08987283706665,0.8384180068969730
2022-11-11T14:53:40.265-07:00,3.017661809921270,3.121343374252320,-9.505115509033200,1.266511678695680,1.525666117668150,0.5993376970291140
2022-11-11T14:53:40.275-07:00,2.785855293273930,2.750475168228150,-9.014683723449710,1.243413090705870,0.9469326138496400,0.2503838539123540
2022-11-11T14:53:40.285-07:00,2.747084379196170,2.25180196762085,-8.368078231811520,1.230706214904790,0.3322650194168090,-0.01079225540161130
2022-11-11T14:53:40.295-07:00,2.762430906295780,1.87481951713562,-7.701619148254400,1.221166372299190,-0.2858931422233580,-0.1190067678689960
2022-11-11T14:53:40.306-07:00,2.797689914703370,1.810047268867490,-7.001323223114010,1.139926552772520,-0.7747007608413700,-0.2786209583282470
2022-11-11T14:53:40.315-07:00,2.578447341918950,1.745415568351750,-6.21799898147583,0.9507432579994200,-1.127913594245910,-0.3199247121810910
2022-11-11T14:53:40.326-07:00,1.943140983581540,1.619985461235050,-5.429329395294190,0.8500245809555050,-1.324138760566710,-0.2616182565689090
2022-11-11T14:53:40.335-07:00,1.300675749778750,1.435783863067630,-4.502090454101560,0.9628764986991880,-1.264433622360230,-0.005538705736398700
2022-11-11T14:53:40.346-07:00,0.6296979784965520,1.215833067893980,-3.75604510307312,1.302606463432310,-1.092012763023380,0.2943178415298460
2022-11-11T14:53:40.355-07:00,0.3495856523513790,1.182648777961730,-3.183690547943120,1.649622201919560,-0.9202566146850590,0.4710184335708620
2022-11-11T14:53:40.366-07:00,1.006241083145140,1.352852582931520,-2.702868938446050,1.779747009277340,-0.6714730262756350,0.5167189836502080
2022-11-11T14:53:40.376-07:00,1.993726134300230,1.418070673942570,-2.512076139450070,1.678879022598270,-0.3690984845161440,0.4737673997879030
2022-11-11T14:53:40.386-07:00,2.8128662109375,1.183967590332030,-2.349457740783690,1.517909526824950,-0.1657757759094240,0.5864307284355160
2022-11-11T14:53:40.396-07:00,3.200034856796270,0.9366607069969180,-2.003299951553350,1.491939544677730,-0.2205384373664860,0.6931935548782350
2022-11-11T14:53:40.406-07:00,2.7640061378479,0.8213815093040470,-1.584239602088930,1.487957000732420,-0.467365026473999,0.6301663517951970
2022-11-11T14:53:40.416-07:00,1.64961838722229,0.8010473251342770,-1.230748414993290,1.360136032104490,-0.6691040992736820,0.5731014013290410
2022-11-11T14:53:40.426-07:00,0.4971855878829960,0.7912735342979430,-1.038729190826420,1.168008208274840,-0.805580735206604,0.567185640335083
2022-11-11T14:53:40.435-07:00,-0.2653679251670840,0.7572949528694150,-1.053522229194640,1.002339959144590,-0.9791605472564700,0.4934996962547300
2022-11-11T14:53:40.446-07:00,-0.5305266380310060,0.7327600717544560,-1.078685879707340,0.9340772032737730,-1.108940601348880,0.4032864570617680
2022-11-11T14:53:40.456-07:00,-0.1481191366910930,0.7421267032623290,-0.8016050457954410,0.9460626840591430,-0.9801673889160160,0.3319174647331240
2022-11-11T14:53:40.466-07:00,0.2575452625751500,0.6800026297569280,-0.5000606775283810,0.9703889489173890,-0.6464108824729920,0.2378791123628620
2022-11-11T14:53:40.481-07:00,0.3564252853393560,0.5684363842010500,-0.4267686009407040,0.9203367829322820,-0.3923047184944150,0.1680318862199780
2022-11-11T14:53:40.496-07:00,0.377223789691925,0.5282391309738160,-0.3078736364841460,0.8023292422294620,-0.4511345624923710,0.1486418396234510
2022-11-11T14:53:40.497-07:00,0.09600470960140230,0.5095735192298890,-0.09056554734706880,0.6564905047416690,-0.663637638092041,0.08743579685688020
2022-11-11T14:53:40.506-07:00,-0.4369907677173620,0.4793639481067660,0.03092545829713350,0.5373692512512210,-0.7609171271324160,0.04052366316318510
2022-11-11T14:53:40.516-07:00,-0.7423422336578370,0.4080669283866880,0.07696352154016500,0.4540136456489560,-0.7378941178321840,0.02735181152820590
2022-11-11T14:53:40.526-07:00,-0.6765296459198000,0.3195163011550900,0.1606387197971340,0.4103869199752810,-0.671690821647644,0.004835024476051330
2022-11-11T14:53:40.536-07:00,-0.2606712877750400,0.2409270256757740,0.2783014178276060,0.3915524482727050,-0.5382700562477110,-0.07658866047859190
2022-11-11T14:53:40.546-07:00,0.02564329653978350,0.09025870263576510,0.331252783536911,0.3574483394622800,-0.3747211694717410,-0.14659184217453
2022-11-11T14:53:40.556-07:00,-0.03716332837939260,-0.07912903279066090,0.3339622914791110,0.3025085926055910,-0.2665954232215880,-0.1384609192609790
2022-11-11T14:53:40.566-07:00,-0.3878419697284700,-0.1766113638877870,0.421026349067688,0.2330929636955260,-0.290427565574646,-0.1145651191473010
2022-11-11T14:53:40.576-07:00,-0.8591362237930300,-0.2120945751667020,0.542814314365387,0.155855655670166,-0.3622230291366580,-0.1452275514602660
2022-11-11T14:53:40.586-07:00,-1.245948910713200,-0.2571475207805630,0.5888065695762630,0.08643811941146850,-0.3852335214614870,-0.1783837080001830
2022-11-11T14:53:40.596-07:00,-1.293344497680660,-0.3204502761363980,0.5574648380279540,0.05044066905975340,-0.2868741750717160,-0.1653023809194570
2022-11-11T14:53:40.606-07:00,-1.037312507629400,-0.3738490641117100,0.5077175498008730,0.03981369733810430,-0.1144537925720220,-0.1655943989753720
2022-11-11T14:53:40.617-07:00,-0.5232897996902470,-0.4174408316612240,0.4867560863494870,0.02658671140670780,0.04097819328308110,-0.1608370393514630
2022-11-11T14:53:40.627-07:00,0.02913054078817370,-0.4653958380222320,0.4275457561016080,-0.01454591751098630,0.1304605007171630,-0.1407404989004140
2022-11-11T14:53:40.636-07:00,0.2912035584449770,-0.4738933444023130,0.3297084271907810,-0.05152368545532230,0.165189802646637,-0.1223722621798520
2022-11-11T14:53:40.646-07:00,0.2481223940849300,-0.4601828455924990,0.2774867713451390,-0.05507802963256840,0.2015503644943240,-0.1128728985786440
2022-11-11T14:53:40.656-07:00,0.0005047209560871120,-0.4241897761821750,0.25265172123909,-0.03215968608856200,0.2074751257896420,-0.09248398989439010
2022-11-11T14:53:40.667-07:00,-0.2897068560123440,-0.3680732548236850,0.2365542501211170,-0.007835984230041500,0.1631954312324520,-0.05798857659101490
2022-11-11T14:53:40.676-07:00,-0.4406170845031740,-0.3052593469619750,0.2091505825519560,-0.01250779628753660,0.1337245106697080,-0.02529888600111010
2022-11-11T14:53:40.686-07:00,-0.4475516974926000,-0.2503537535667420,0.1524582803249360,-0.03560382127761840,0.1428413987159730,-0.002281956374645230
2022-11-11T14:53:40.697-07:00,-0.3766554892063140,-0.2158391028642650,0.07921868562698360,-0.05070465803146360,0.1868139505386350,0.008164048194885250
2022-11-11T14:53:40.707-07:00,-0.2111192494630810,-0.2109652608633040,0.04889780282974240,-0.04014581441879270,0.2073923349380490,0.03915536403656010
2022-11-11T14:53:40.717-07:00,-0.07381987571716310,-0.1851547956466680,0.0518760159611702,-0.0235939621925354,0.1775709986686710,0.06193853169679640
2022-11-11T14:53:40.727-07:00,0.03708560019731520,-0.1638553738594060,0.04697473347187040,-0.02950459718704220,0.1553469896316530,0.06024032831192020
2022-11-11T14:53:40.737-07:00,0.07160216569900510,-0.1667570173740390,0.0004668855108320710,-0.04719078540802000,0.1496425867080690,0.04456938058137890
2022-11-11T14:53:40.747-07:00,0.02768770605325700,-0.1682379990816120,-0.02359477430582050,-0.04957616329193120,0.1141519546508790,0.05239409208297730
2022-11-11T14:53:40.757-07:00,-0.09407082200050350,-0.154829129576683,-0.04027841240167620,-0.0483660101890564,0.07941973209381100,0.04530227184295650
2022-11-11T14:53:40.767-07:00,-0.2754275798797610,-0.1228309720754620,-0.09469824284315110,-0.0596163272857666,0.06650018692016600,0.03286825865507130
2022-11-11T14:53:40.777-07:00,-0.3326234221458440,-0.09791024029254910,-0.1293944418430330,-0.05451065301895140,0.06336450576782230,0.04076135158538820
2022-11-11T14:53:40.787-07:00,-0.2797554135322570,-0.09858748316764830,-0.1312107145786290,-0.03178012371063230,0.06358641386032100,0.03345739841461180
2022-11-11T14:53:40.797-07:00,-0.1894156187772750,-0.1047559306025510,-0.1315657198429110,-0.01319235563278200,0.07723349332809450,0.02917206659913060
2022-11-11T14:53:40.808-07:00,-0.172161802649498,-0.09801439940929410,-0.1363359689712520,-0.02211064100265500,0.0727047324180603,0.02999556437134740
2022-11-11T14:53:40.817-07:00,-0.2292692959308620,-0.06500105559825900,-0.09983601421117780,-0.03179687261581420,0.02505946159362790,0.03406745940446850
2022-11-11T14:53:40.827-07:00,-0.2653114497661590,-0.03513477370142940,-0.05825182050466540,-0.03593939542770390,-0.02437120676040650,0.03083706647157670
2022-11-11T14:53:40.837-07:00,-0.1096933931112290,-0.01226724311709400,-0.02056915685534480,-0.02318871021270750,-0.06492584943771360,0.03864549845457080
2022-11-11T14:53:40.847-07:00,0.1127492785453800,-0.03105504438281060,-0.002459395211189990,-0.01045101881027220,-0.07947075366973880,0.01379530876874920
2022-11-11T14:53:40.857-07:00,0.1302449703216550,-0.0643954873085022,-0.02062375098466870,0.00883185863494873,-0.0537182092666626,-0.006994839757680890
2022-11-11T14:53:40.867-07:00,-0.06900714337825780,-0.07563190162181850,-0.05328023433685300,0.03852921724319460,-0.04975306987762450,0.04530947655439380
2022-11-11T14:53:40.877-07:00,-0.3209031224250790,-0.01618338748812680,-0.01623166725039480,0.06252211332321170,-0.1155645251274110,0.07001209259033200
2022-11-11T14:53:40.887-07:00,-0.2805677056312560,0.04934981465339660,0.07915504276752470,0.06203603744506840,-0.1440668106079100,0.04001528024673460
2022-11-11T14:53:40.897-07:00,0.0229015052318573,0.04595894366502760,0.1004877611994740,0.03239566087722780,-0.08074772357940670,0.007186774164438250
2022-11-11T14:53:40.908-07:00,0.2594261467456820,0.01321910973638300,0.0650743767619133,-0.006065964698791500,0.003709614276885990,0.01306069269776340
2022-11-11T14:53:40.917-07:00,0.3891725242137910,0.01378493197262290,0.0917573869228363,-0.02740508317947390,0.02309709787368770,-0.02159601449966430
2022-11-11T14:53:40.927-07:00,0.361219197511673,0.001557026989758020,0.1371877193450930,-0.02831369638442990,-0.04862070083618160,-0.05505634099245070
2022-11-11T14:53:40.937-07:00,0.215739443898201,-0.01544319465756420,0.157589927315712,-0.01146954298019410,-0.1203052997589110,-0.03269398212432860
2022-11-11T14:53:40.948-07:00,-0.01303888484835630,-0.02791877277195450,0.1545469909906390,0.01638811826705930,-0.1198602914810180,-0.02217292785644530
2022-11-11T14:53:40.957-07:00,-0.2055168598890310,-0.01878905855119230,0.1450890600681310,0.04724937677383420,-0.05827069282531740,-0.0102527067065239
2022-11-11T14:53:40.968-07:00,-0.2914101779460910,0.007552534807473420,0.09821075201034550,0.06277167797088620,-0.001843273639678960,0.02250505238771440
2022-11-11T14:53:40.980-07:00,-0.1831193715333940,0.04448948055505750,0.0577823743224144,0.07218605279922490,0.03097820281982420,0.04345190525054930
2022-11-11T14:53:40.997-07:00,0.009289490059018140,0.05554825440049170,0.01248892769217490,0.07264947891235350,0.08208084106445310,0.03178877383470540
2022-11-11T14:53:40.999-07:00,0.2287415117025380,0.04584040120244030,-0.02012654021382330,0.06556439399719240,0.1347367763519290,0.02636682987213140
2022-11-11T14:53:41.008-07:00,0.3749043047428130,0.02985424734652040,-0.02871629968285560,0.04983139038085940,0.1339447498321530,0.0179983377456665
2022-11-11T14:53:41.018-07:00,0.3346198201179500,0.02669856511056420,-0.01410672999918460,0.02126228809356690,0.05950659513473510,0.00305962935090065
2022-11-11T14:53:41.028-07:00,0.1961240172386170,0.02310276590287690,0.007822269573807720,-0.002804219722747800,-0.0186387300491333,0.004640579223632810
2022-11-11T14:53:41.039-07:00,0.02358740381896500,0.01587121747434140,0.0253639779984951,-0.01321965456008910,-0.06739795207977300,-0.003913283348083500
2022-11-11T14:53:41.048-07:00,-0.04048718512058260,0.02534008771181110,0.04211952537298200,-0.01401054859161380,-0.08078789710998540,-0.01493525505065920
2022-11-11T14:53:41.058-07:00,0.004277486354112630,0.02084027789533140,0.04306201636791230,-0.01540237665176390,-0.06949454545974730,-0.02084529027342800
2022-11-11T14:53:41.068-07:00,0.02740038186311720,0.02857942506670950,0.03540968894958500,-0.002988934516906740,-0.03581029176712040,-0.01998984813690190
2022-11-11T14:53:41.078-07:00,0.06612198054790500,0.02711625024676320,0.03061812929809090,0.01997232437133790,0.009940266609191900,-0.007767848670482640
2022-11-11T14:53:41.088-07:00,0.08901078253984450,0.02534844353795050,0.02109972573816780,0.03906774520874020,0.01362693309783940,-0.009868152439594270
2022-11-11T14:53:41.098-07:00,0.05323227867484090,0.0407729372382164,0.01731351017951970,0.04764860868453980,-0.01231735944747930,-0.00645887479186058
2022-11-11T14:53:41.108-07:00,0.06875824928283690,0.045467559248209,0.03808430582284930,0.05360621213912960,-0.01246261596679690,0.001543164253234860
2022-11-11T14:53:41.118-07:00,0.1459153741598130,0.0266384445130825,0.04237518832087520,0.05897438526153560,-0.001237928867340090,-0.002430669963359830
2022-11-11T14:53:41.128-07:00,0.2088163048028950,0.01531175523996350,0.05117453634738920,0.05445832014083860,-0.01312720775604250,-0.009500853717327120
2022-11-11T14:53:41.138-07:00,0.27704057097435,0.004429079592227940,0.09080876410007480,0.03936964273452760,-0.04126852750778200,-0.02824770659208300
2022-11-11T14:53:41.148-07:00,0.2876138687133790,-0.01937798410654070,0.1319354325532910,0.03246325254440310,-0.06839597225189210,-0.05136001855134960
2022-11-11T14:53:41.158-07:00,0.2342706620693210,-0.04966388270258900,0.1669906228780750,0.04010111093521120,-0.09003114700317380,-0.05060207843780520
2022-11-11T14:53:41.168-07:00,0.1032537668943410,-0.06705379486083980,0.2050823569297790,0.05277454853057860,-0.1209308505058290,-0.04057531803846360
2022-11-11T14:53:41.179-07:00,-0.1030137538909910,-0.07076480239629750,0.2462899535894390,0.06201010942459110,-0.1500049829483030,-0.03644197434186940
2022-11-11T14:53:41.189-07:00,-0.2399660050868990,-0.05130695551633840,0.264749675989151,0.05744814872741700,-0.1475265622138980,-0.02068596333265310
2022-11-11T14:53:41.198-07:00,-0.2210214734077450,-0.03401464968919750,0.245196208357811,0.04534924030303960,-0.1142125725746160,-0.01582633703947070
2022-11-11T14:53:41.208-07:00,-0.1255370378494260,-0.01655017212033270,0.2352583706378940,0.04702275991439820,-0.06833493709564210,-0.01867110282182690
2022-11-11T14:53:41.218-07:00,0.02852453850209710,-0.01473319716751580,0.255599319934845,0.06086909770965580,-0.0212630033493042,-0.02460575848817830
2022-11-11T14:53:41.229-07:00,0.219291016459465,-0.0317489318549633,0.2792995870113370,0.07844305038452150,0.004420459270477300,-0.02320504188537600
2022-11-11T14:53:41.238-07:00,0.3659873306751250,-0.04986914619803430,0.2967997491359710,0.08569812774658200,-0.01989603042602540,-0.03059065341949460
2022-11-11T14:53:41.249-07:00,0.4391739368438720,-0.04956048354506490,0.3286807239055630,0.07842159271240230,-0.06718015670776370,-0.02446746826171880
2022-11-11T14:53:41.258-07:00,0.4905771315097810,-0.05490914359688760,0.3777646422386170,0.07921034097671510,-0.1030987501144410,-0.0393986701965332
2022-11-11T14:53:41.268-07:00,0.5259801149368290,-0.08540926873683930,0.4157636761665340,0.09718525409698490,-0.1182711720466610,-0.05240744352340700
2022-11-11T14:53:41.278-07:00,0.5534375905990600,-0.1241118833422660,0.4659118056297300,0.1278968453407290,-0.1287438869476320,-0.04868519306182860
2022-11-11T14:53:41.289-07:00,0.5387808680534360,-0.1584855765104290,0.5188519954681400,0.1458252370357510,-0.140197217464447,-0.04640268534421920
2022-11-11T14:53:41.299-07:00,0.4581834375858310,-0.1599379926919940,0.5536147356033330,0.1443102359771730,-0.1584165692329410,-0.03382359445095060
2022-11-11T14:53:41.309-07:00,0.3313581049442290,-0.1416103839874270,0.5804862976074220,0.1370848417282100,-0.1755218505859380,-0.03249597549438480
2022-11-11T14:53:41.319-07:00,0.1706939488649370,-0.1344116926193240,0.5995764136314390,0.1493571996688840,-0.1822737455368040,-0.02315686643123630
2022-11-11T14:53:41.329-07:00,0.0395553857088089,-0.1299349069595340,0.6354270577430730,0.1795777678489690,-0.1833052635192870,0.001351833343505860
2022-11-11T14:53:41.339-07:00,-0.02732950821518900,-0.1198645755648610,0.6804866790771480,0.2058218121528630,-0.1786305904388430,0.01302766799926760
2022-11-11T14:53:41.349-07:00,-0.007890828885138040,-0.0903405025601387,0.7350308895111080,0.2151357233524320,-0.1627155542373660,0.02197419106960300
2022-11-11T14:53:41.360-07:00,0.1349103897809980,-0.05186595395207410,0.7917231917381290,0.2134216725826260,-0.1327610015869140,0.01933789253234860
2022-11-11T14:53:41.369-07:00,0.368061900138855,-0.02233362384140490,0.8547242879867550,0.208715945482254,-0.1046159267425540,0.01281053572893140
2022-11-11T14:53:41.380-07:00,0.5990184545516970,-0.003416659310460090,0.9161601662635800,0.1980125606060030,-0.09315353631973270,0.01151633262634280
2022-11-11T14:53:41.390-07:00,0.7233590483665470,0.02255049347877500,0.9799684286117550,0.1931707561016080,-0.1039436459541320,0.01723039895296100
2022-11-11T14:53:41.399-07:00,0.7454029321670530,0.04404553398489950,1.062496423721310,0.1840395629405980,-0.1376157999038700,0.01560713350772860
2022-11-11T14:53:41.409-07:00,0.6811190247535710,0.0589326024055481,1.160286664962770,0.1729858219623570,-0.1779814958572390,0.0020718052983284
2022-11-11T14:53:41.419-07:00,0.469969779253006,0.04578560590744020,1.231119751930240,0.1623727381229400,-0.2147215008735660,0.01641494035720830
2022-11-11T14:53:41.429-07:00,0.1520213782787320,0.01875079423189160,1.28359043598175,0.1530855894088750,-0.2317348718643190,0.03393924236297610
2022-11-11T14:53:41.439-07:00,-0.1664110273122790,0.01119097881019120,1.33479106426239,0.1471993327140810,-0.2452763319015500,0.03370398283004760
2022-11-11T14:53:41.449-07:00,-0.3911480009555820,0.01760067418217660,1.384149789810180,0.1352389454841610,-0.252816915512085,0.03074012696743010
2022-11-11T14:53:41.459-07:00,-0.4184973239898680,0.013320442289114,1.405681729316710,0.1213367581367490,-0.2340248227119450,0.03925400972366330
2022-11-11T14:53:41.469-07:00,-0.2938597798347470,0.01093824580311780,1.409771800041200,0.1153360307216640,-0.186657190322876,0.03442627191543580
2022-11-11T14:53:41.486-07:00,-0.04066119343042370,0.02373110502958300,1.435249924659730,0.1170108020305630,-0.1013008952140810,0.0005554631352424620
2022-11-11T14:53:41.490-07:00,0.2800422608852390,0.008276248350739480,1.495889067649840,0.1169841289520260,0.00570976734161377,-0.008813083171844480
2022-11-11T14:53:41.500-07:00,0.6350822448730470,-0.05711567401885990,1.549873232841490,0.1212961077690130,0.07522571086883550,0.002938210964202880
2022-11-11T14:53:41.510-07:00,0.8503385782241820,-0.1092877984046940,1.547715783119200,0.1249736249446870,0.07069802284240720,0.009168624877929690
2022-11-11T14:53:41.520-07:00,0.7103179097175600,-0.1313700079917910,1.499176859855650,0.1242488324642180,-0.001817882061004640,0.03200872242450710
2022-11-11T14:53:41.530-07:00,0.2802485823631290,-0.1591206789016720,1.532907843589780,0.1202492713928220,-0.08502447605133060,0.07940876483917240
2022-11-11T14:53:41.540-07:00,-0.2343006432056430,-0.1864147484302520,1.617965459823610,0.1262269169092180,-0.1386536955833440,0.0978294163942337
2022-11-11T14:53:41.550-07:00,-0.7722506523132320,-0.1804692447185520,1.668097615242000,0.1202298700809480,-0.1746742725372310,0.1017158627510070
2022-11-11T14:53:41.560-07:00,-1.122112274169920,-0.1269243806600570,1.667552471160890,0.09383635222911840,-0.1644603610038760,0.1074797064065930
2022-11-11T14:53:41.569-07:00,-1.145233392715450,-0.06390280276536940,1.621236443519590,0.07270324230194090,-0.114031970500946,0.0990108847618103
2022-11-11T14:53:41.580-07:00,-0.9669924378395080,0.005995984189212320,1.600937962532040,0.07172879576683040,-0.05648297071456910,0.05242973566055300
2022-11-11T14:53:41.589-07:00,-0.5902153253555300,0.08507481962442400,1.639409780502320,0.09139157831668850,0.01400083303451540,-0.001679055392742160
2022-11-11T14:53:41.599-07:00,-0.1404452472925190,0.1241343319416050,1.720871090888980,0.1197486221790310,0.06659507751464840,-0.04410803318023680
2022-11-11T14:53:41.609-07:00,0.1288317739963530,0.07852557301521300,1.742153167724610,0.1361244767904280,0.08712857961654660,-0.0104251354932785
2022-11-11T14:53:41.620-07:00,0.06906603276729580,-0.03765362501144410,1.684401988983150,0.1342333555221560,0.06068527698516850,0.07799363136291500
2022-11-11T14:53:41.629-07:00,-0.3006078600883480,-0.1523557156324390,1.645957946777340,0.1258415877819060,0.005551457405090330,0.1424019336700440
2022-11-11T14:53:41.639-07:00,-0.7921292781829830,-0.2430777251720430,1.659974217414860,0.1218951866030690,-0.05666279792785650,0.1954272985458370
